phase,uniqueid,distractor,target,type,response,hit,rt,trialNum,initrt,stimOn,stimOff,startTime,moneyEarned,sessionNum,blockNum,blockType,intervalNum,intervalType,intervalLength,iti,isi
MainBlock,5cc8cab1f67ce800171cc5b2:TSS_RECONF_111022,BLUE,blue,congruent,blue,1.0,767.0,1.0,,1668182581151.0,1668182581918.0,1668182581150.0,0.0,0.0,1.0,Mixed_1000,1.0,Accuracy,7500.0,1000.0,1000.0
MainBlock,5cc8cab1f67ce800171cc5b2:TSS_RECONF_111022,RED,yellow,incongruent,yellow,1.0,1160.0,2.0,,1668182582422.0,1668182583582.0,1668182581150.0,0.0,0.0,1.0,Mixed_1000,1.0,Accuracy,7500.0,1000.0,1000.0
MainBlock,5cc8cab1f67ce800171cc5b2:TSS_RECONF_111022,BLUE,red,incongruent,red,1.0,640.0,3.0,,1668182584086.0,1668182584726.0,1668182581150.0,0.0,0.0,1.0,Mixed_1000,1.0,Accuracy,7500.0,1000.0,1000.0
MainBlock,5cc8cab1f67ce800171cc5b2:TSS_RECONF_111022,YELLOW,yellow,congruent,yellow,1.0,659.0,4.0,,1668182585227.0,1668182585886.0,1668182581150.0,0.0,0.0,1.0,Mixed_1000,1.0,Accuracy,7500.0,1000.0,1000.0
MainBlock,5cc8cab1f67ce800171cc5b2:TSS_RECONF_111022,BLUE,blue,congruent,blue,1.0,624.0,5.0,,1668182586390.0,1668182587014.0,1668182581150.0,0.0,0.0,1.0,Mixed_1000,1.0,Accuracy,7500.0,1000.0,1000.0
MainBlock,5cc8cab1f67ce800171cc5b2:TSS_RECONF_111022,GREEN,yellow,incongruent,yellow,1.0,857.0,6.0,,1668182587518.0,1668182588375.0,1668182581150.0,0.0,0.0,1.0,Mixed_1000,1.0,Accuracy,7500.0,1000.0,1000.0
MainBlock,5cc8cab1f67ce800171cc5b2:TSS_RECONF_111022,,,,,,,,,,,,0.0,0.0,1.0,Mixed_1000,1.0,Accuracy,7500.0,1000.0,1000.0
MainBlock,5cc8cab1f67ce800171cc5b2:TSS_RECONF_111022,RED,red,congruent,red,1.0,575.0,1.0,,1668182594663.0,1668182595238.0,1668182594662.0,0.0,0.0,1.0,Mixed_1000,2.0,Speed,7000.0,1000.0,1000.0
MainBlock,5cc8cab1f67ce800171cc5b2:TSS_RECONF_111022,GREEN,yellow,incongruent,yellow,1.0,614.0,2.0,,1668182595743.0,1668182596357.0,1668182594662.0,0.0,0.0,1.0,Mixed_1000,2.0,Speed,7000.0,1000.0,1000.0
MainBlock,5cc8cab1f67ce800171cc5b2:TSS_RECONF_111022,BLUE,blue,congruent,blue,1.0,487.0,3.0,,1668182596863.0,1668182597350.0,1668182594662.0,0.0,0.0,1.0,Mixed_1000,2.0,Speed,7000.0,1000.0,1000.0
MainBlock,5cc8cab1f67ce800171cc5b2:TSS_RECONF_111022,RED,yellow,incongruent,yellow,1.0,655.0,4.0,,1668182597855.0,1668182598510.0,1668182594662.0,0.0,0.0,1.0,Mixed_1000,2.0,Speed,7000.0,1000.0,1000.0
MainBlock,5cc8cab1f67ce800171cc5b2:TSS_RECONF_111022,GREEN,green,congruent,green,1.0,616.0,5.0,,1668182599014.0,1668182599630.0,1668182594662.0,0.0,0.0,1.0,Mixed_1000,2.0,Speed,7000.0,1000.0,1000.0
MainBlock,5cc8cab1f67ce800171cc5b2:TSS_RECONF_111022,BLUE,red,incongruent,red,1.0,726.0,6.0,,1668182600135.0,1668182600861.0,1668182594662.0,0.0,0.0,1.0,Mixed_1000,2.0,Speed,7000.0,1000.0,1000.0
MainBlock,5cc8cab1f67ce800171cc5b2:TSS_RECONF_111022,,,,,,,,,,,,0.0,0.0,1.0,Mixed_1000,2.0,Speed,7000.0,1000.0,1000.0
MainBlock,5cc8cab1f67ce800171cc5b2:TSS_RECONF_111022,YELLOW,yellow,congruent,yellow,1.0,846.0,1.0,,1668182607679.0,1668182608525.0,1668182607678.0,0.0,0.0,1.0,Mixed_1000,3.0,Accuracy,8000.0,1000.0,1000.0
MainBlock,5cc8cab1f67ce800171cc5b2:TSS_RECONF_111022,BLUE,green,incongruent,green,1.0,903.0,2.0,,1668182609030.0,1668182609933.0,1668182607678.0,0.0,0.0,1.0,Mixed_1000,3.0,Accuracy,8000.0,1000.0,1000.0
MainBlock,5cc8cab1f67ce800171cc5b2:TSS_RECONF_111022,GREEN,yellow,incongruent,yellow,1.0,750.0,3.0,,1668182610439.0,1668182611189.0,1668182607678.0,0.0,0.0,1.0,Mixed_1000,3.0,Accuracy,8000.0,1000.0,1000.0
MainBlock,5cc8cab1f67ce800171cc5b2:TSS_RECONF_111022,YELLOW,red,incongruent,red,1.0,663.0,4.0,,1668182611694.0,1668182612357.0,1668182607678.0,0.0,0.0,1.0,Mixed_1000,3.0,Accuracy,8000.0,1000.0,1000.0
MainBlock,5cc8cab1f67ce800171cc5b2:TSS_RECONF_111022,BLUE,blue,congruent,blue,1.0,614.0,5.0,,1668182612863.0,1668182613477.0,1668182607678.0,0.0,0.0,1.0,Mixed_1000,3.0,Accuracy,8000.0,1000.0,1000.0
MainBlock,5cc8cab1f67ce800171cc5b2:TSS_RECONF_111022,RED,yellow,incongruent,yellow,1.0,734.0,6.0,,1668182613983.0,1668182614717.0,1668182607678.0,0.0,0.0,1.0,Mixed_1000,3.0,Accuracy,8000.0,1000.0,1000.0
MainBlock,5cc8cab1f67ce800171cc5b2:TSS_RECONF_111022,,,,,,,,,,,,0.0,0.0,1.0,Mixed_1000,3.0,Accuracy,8000.0,1000.0,1000.0
MainBlock,5cc8cab1f67ce800171cc5b2:TSS_RECONF_111022,YELLOW,yellow,congruent,yellow,1.0,550.0,1.0,,1668182622695.0,1668182623245.0,1668182622694.0,0.0,0.0,1.0,Mixed_1000,4.0,Speed,7500.0,2000.0,1000.0
MainBlock,5cc8cab1f67ce800171cc5b2:TSS_RECONF_111022,BLUE,red,incongruent,red,1.0,653.0,2.0,,1668182623751.0,1668182624404.0,1668182622694.0,0.0,0.0,1.0,Mixed_1000,4.0,Speed,7500.0,2000.0,1000.0
MainBlock,5cc8cab1f67ce800171cc5b2:TSS_RECONF_111022,GREEN,blue,incongruent,green,0.0,694.0,3.0,,1668182624910.0,1668182625604.0,1668182622694.0,0.0,0.0,1.0,Mixed_1000,4.0,Speed,7500.0,2000.0,1000.0
MainBlock,5cc8cab1f67ce800171cc5b2:TSS_RECONF_111022,BLUE,yellow,incongruent,yellow,1.0,782.0,4.0,,1668182626110.0,1668182626892.0,1668182622694.0,0.0,0.0,1.0,Mixed_1000,4.0,Speed,7500.0,2000.0,1000.0
MainBlock,5cc8cab1f67ce800171cc5b2:TSS_RECONF_111022,RED,red,congruent,red,1.0,597.0,5.0,,1668182627399.0,1668182627996.0,1668182622694.0,0.0,0.0,1.0,Mixed_1000,4.0,Speed,7500.0,2000.0,1000.0
MainBlock,5cc8cab1f67ce800171cc5b2:TSS_RECONF_111022,BLUE,yellow,incongruent,yellow,1.0,765.0,6.0,,1668182628506.0,1668182629271.0,1668182622694.0,0.0,0.0,1.0,Mixed_1000,4.0,Speed,7500.0,2000.0,1000.0
MainBlock,5cc8cab1f67ce800171cc5b2:TSS_RECONF_111022,,,,,,,,,,,,0.0,0.0,1.0,Mixed_1000,4.0,Speed,7500.0,2000.0,1000.0
MainBlock,5cc8cab1f67ce800171cc5b2:TSS_RECONF_111022,RED,red,congruent,red,1.0,662.0,1.0,,1668182636722.0,1668182637384.0,1668182636721.0,0.0,0.0,1.0,Mixed_1000,5.0,Accuracy,8000.0,1500.0,1000.0
MainBlock,5cc8cab1f67ce800171cc5b2:TSS_RECONF_111022,YELLOW,blue,incongruent,blue,1.0,741.0,2.0,,1668182637890.0,1668182638631.0,1668182636721.0,0.0,0.0,1.0,Mixed_1000,5.0,Accuracy,8000.0,1500.0,1000.0
MainBlock,5cc8cab1f67ce800171cc5b2:TSS_RECONF_111022,BLUE,red,incongruent,red,1.0,653.0,3.0,,1668182639138.0,1668182639791.0,1668182636721.0,0.0,0.0,1.0,Mixed_1000,5.0,Accuracy,8000.0,1500.0,1000.0
MainBlock,5cc8cab1f67ce800171cc5b2:TSS_RECONF_111022,GREEN,green,congruent,green,1.0,1149.0,4.0,,1668182640298.0,1668182641447.0,1668182636721.0,0.0,0.0,1.0,Mixed_1000,5.0,Accuracy,8000.0,1500.0,1000.0
MainBlock,5cc8cab1f67ce800171cc5b2:TSS_RECONF_111022,YELLOW,yellow,congruent,yellow,1.0,821.0,5.0,,1668182641954.0,1668182642775.0,1668182636721.0,0.0,0.0,1.0,Mixed_1000,5.0,Accuracy,8000.0,1500.0,1000.0
MainBlock,5cc8cab1f67ce800171cc5b2:TSS_RECONF_111022,RED,green,incongruent,green,1.0,1108.0,6.0,,1668182643282.0,1668182644390.0,1668182636721.0,0.0,0.0,1.0,Mixed_1000,5.0,Accuracy,8000.0,1500.0,1000.0
MainBlock,5cc8cab1f67ce800171cc5b2:TSS_RECONF_111022,,,,,,,,,,,,0.0,0.0,1.0,Mixed_1000,5.0,Accuracy,8000.0,1500.0,1000.0
MainBlock,5cc8cab1f67ce800171cc5b2:TSS_RECONF_111022,YELLOW,blue,incongruent,blue,1.0,852.0,1.0,,1668182651738.0,1668182652591.0,1668182651738.0,0.0,0.0,1.0,Mixed_1000,6.0,Speed,7500.0,2000.0,1000.0
MainBlock,5cc8cab1f67ce800171cc5b2:TSS_RECONF_111022,RED,red,congruent,red,1.0,516.0,2.0,,1668182653098.0,1668182653614.0,1668182651738.0,0.0,0.0,1.0,Mixed_1000,6.0,Speed,7500.0,2000.0,1000.0
MainBlock,5cc8cab1f67ce800171cc5b2:TSS_RECONF_111022,GREEN,yellow,incongruent,green,0.0,660.0,3.0,,1668182654122.0,1668182654782.0,1668182651738.0,0.0,0.0,1.0,Mixed_1000,6.0,Speed,7500.0,2000.0,1000.0
MainBlock,5cc8cab1f67ce800171cc5b2:TSS_RECONF_111022,YELLOW,blue,incongruent,blue,1.0,731.0,4.0,,1668182655283.0,1668182656014.0,1668182651738.0,0.0,0.0,1.0,Mixed_1000,6.0,Speed,7500.0,2000.0,1000.0
MainBlock,5cc8cab1f67ce800171cc5b2:TSS_RECONF_111022,GREEN,green,congruent,green,1.0,580.0,5.0,,1668182656522.0,1668182657102.0,1668182651738.0,0.0,0.0,1.0,Mixed_1000,6.0,Speed,7500.0,2000.0,1000.0
MainBlock,5cc8cab1f67ce800171cc5b2:TSS_RECONF_111022,BLUE,blue,congruent,green,0.0,588.0,6.0,,1668182657610.0,1668182658198.0,1668182651738.0,0.0,0.0,1.0,Mixed_1000,6.0,Speed,7500.0,2000.0,1000.0
MainBlock,5cc8cab1f67ce800171cc5b2:TSS_RECONF_111022,,,,,,,,,,,,0.0,0.0,1.0,Mixed_1000,6.0,Speed,7500.0,2000.0,1000.0
MainBlock,5cc8cab1f67ce800171cc5b2:TSS_RECONF_111022,RED,green,incongruent,green,1.0,900.0,1.0,,1668182666258.0,1668182667158.0,1668182666258.0,0.0,0.0,1.0,Mixed_1000,7.0,Accuracy,6500.0,2000.0,1000.0
MainBlock,5cc8cab1f67ce800171cc5b2:TSS_RECONF_111022,YELLOW,yellow,congruent,yellow,1.0,835.0,2.0,,1668182667666.0,1668182668501.0,1668182666258.0,0.0,0.0,1.0,Mixed_1000,7.0,Accuracy,6500.0,2000.0,1000.0
MainBlock,5cc8cab1f67ce800171cc5b2:TSS_RECONF_111022,GREEN,red,incongruent,red,1.0,659.0,3.0,,1668182669010.0,1668182669669.0,1668182666258.0,0.0,0.0,1.0,Mixed_1000,7.0,Accuracy,6500.0,2000.0,1000.0
MainBlock,5cc8cab1f67ce800171cc5b2:TSS_RECONF_111022,RED,blue,incongruent,blue,1.0,787.0,4.0,,1668182670178.0,1668182670965.0,1668182666258.0,0.0,0.0,1.0,Mixed_1000,7.0,Accuracy,6500.0,2000.0,1000.0
MainBlock,5cc8cab1f67ce800171cc5b2:TSS_RECONF_111022,GREEN,green,congruent,green,1.0,619.0,5.0,,1668182671474.0,1668182672093.0,1668182666258.0,0.0,0.0,1.0,Mixed_1000,7.0,Accuracy,6500.0,2000.0,1000.0
MainBlock,5cc8cab1f67ce800171cc5b2:TSS_RECONF_111022,,,,,,,,,,,,0.0,0.0,1.0,Mixed_1000,7.0,Accuracy,6500.0,2000.0,1000.0
MainBlock,5cc8cab1f67ce800171cc5b2:TSS_RECONF_111022,GREEN,green,congruent,green,1.0,563.0,1.0,,1668182679282.0,1668182679845.0,1668182679282.0,0.0,0.0,1.0,Mixed_1000,8.0,Speed,6500.0,1500.0,1000.0
MainBlock,5cc8cab1f67ce800171cc5b2:TSS_RECONF_111022,RED,blue,incongruent,blue,1.0,570.0,2.0,,1668182680354.0,1668182680924.0,1668182679282.0,0.0,0.0,1.0,Mixed_1000,8.0,Speed,6500.0,1500.0,1000.0
MainBlock,5cc8cab1f67ce800171cc5b2:TSS_RECONF_111022,GREEN,yellow,incongruent,yellow,1.0,474.0,3.0,,1668182681426.0,1668182681900.0,1668182679282.0,0.0,0.0,1.0,Mixed_1000,8.0,Speed,6500.0,1500.0,1000.0
MainBlock,5cc8cab1f67ce800171cc5b2:TSS_RECONF_111022,BLUE,blue,congruent,blue,1.0,594.0,4.0,,1668182682402.0,1668182682996.0,1668182679282.0,0.0,0.0,1.0,Mixed_1000,8.0,Speed,6500.0,1500.0,1000.0
MainBlock,5cc8cab1f67ce800171cc5b2:TSS_RECONF_111022,YELLOW,yellow,congruent,yellow,1.0,666.0,5.0,,1668182683498.0,1668182684164.0,1668182679282.0,0.0,0.0,1.0,Mixed_1000,8.0,Speed,6500.0,1500.0,1000.0
MainBlock,5cc8cab1f67ce800171cc5b2:TSS_RECONF_111022,RED,green,incongruent,green,1.0,722.0,6.0,,1668182684666.0,1668182685388.0,1668182679282.0,0.0,0.0,1.0,Mixed_1000,8.0,Speed,6500.0,1500.0,1000.0
MainBlock,5cc8cab1f67ce800171cc5b2:TSS_RECONF_111022,,,,,,,,,,,,0.0,0.0,1.0,Mixed_1000,8.0,Speed,6500.0,1500.0,1000.0
MainBlock,5cc8cab1f67ce800171cc5b2:TSS_RECONF_111022,GREEN,yellow,incongruent,yellow,1.0,1267.0,1.0,,1668182691797.0,1668182693064.0,1668182691797.0,0.0,0.0,1.0,Mixed_1000,9.0,Accuracy,8000.0,1000.0,1000.0
MainBlock,5cc8cab1f67ce800171cc5b2:TSS_RECONF_111022,RED,red,congruent,red,1.0,618.0,2.0,,1668182693565.0,1668182694183.0,1668182691797.0,0.0,0.0,1.0,Mixed_1000,9.0,Accuracy,8000.0,1000.0,1000.0
MainBlock,5cc8cab1f67ce800171cc5b2:TSS_RECONF_111022,GREEN,yellow,incongruent,yellow,1.0,650.0,3.0,,1668182694685.0,1668182695335.0,1668182691797.0,0.0,0.0,1.0,Mixed_1000,9.0,Accuracy,8000.0,1000.0,1000.0
MainBlock,5cc8cab1f67ce800171cc5b2:TSS_RECONF_111022,BLUE,blue,congruent,blue,1.0,522.0,4.0,,1668182695837.0,1668182696359.0,1668182691797.0,0.0,0.0,1.0,Mixed_1000,9.0,Accuracy,8000.0,1000.0,1000.0
MainBlock,5cc8cab1f67ce800171cc5b2:TSS_RECONF_111022,GREEN,red,incongruent,red,1.0,650.0,5.0,,1668182696861.0,1668182697511.0,1668182691797.0,0.0,0.0,1.0,Mixed_1000,9.0,Accuracy,8000.0,1000.0,1000.0
MainBlock,5cc8cab1f67ce800171cc5b2:TSS_RECONF_111022,BLUE,blue,congruent,blue,1.0,650.0,6.0,,1668182698013.0,1668182698663.0,1668182691797.0,0.0,0.0,1.0,Mixed_1000,9.0,Accuracy,8000.0,1000.0,1000.0
MainBlock,5cc8cab1f67ce800171cc5b2:TSS_RECONF_111022,,,,,,,,,,,,0.0,0.0,1.0,Mixed_1000,9.0,Accuracy,8000.0,1000.0,1000.0
MainBlock,5cc8cab1f67ce800171cc5b2:TSS_RECONF_111022,GREEN,green,congruent,green,1.0,985.0,1.0,,1668182706814.0,1668182707799.0,1668182706813.0,0.0,0.0,1.0,Mixed_1000,10.0,Speed,7000.0,2000.0,1000.0
MainBlock,5cc8cab1f67ce800171cc5b2:TSS_RECONF_111022,BLUE,yellow,incongruent,yellow,1.0,673.0,2.0,,1668182708301.0,1668182708974.0,1668182706813.0,0.0,0.0,1.0,Mixed_1000,10.0,Speed,7000.0,2000.0,1000.0
MainBlock,5cc8cab1f67ce800171cc5b2:TSS_RECONF_111022,GREEN,green,congruent,green,1.0,537.0,3.0,,1668182709477.0,1668182710014.0,1668182706813.0,0.0,0.0,1.0,Mixed_1000,10.0,Speed,7000.0,2000.0,1000.0
MainBlock,5cc8cab1f67ce800171cc5b2:TSS_RECONF_111022,BLUE,red,incongruent,red,1.0,545.0,4.0,,1668182710517.0,1668182711062.0,1668182706813.0,0.0,0.0,1.0,Mixed_1000,10.0,Speed,7000.0,2000.0,1000.0
MainBlock,5cc8cab1f67ce800171cc5b2:TSS_RECONF_111022,GREEN,blue,incongruent,blue,1.0,689.0,5.0,,1668182711565.0,1668182712254.0,1668182706813.0,0.0,0.0,1.0,Mixed_1000,10.0,Speed,7000.0,2000.0,1000.0
MainBlock,5cc8cab1f67ce800171cc5b2:TSS_RECONF_111022,YELLOW,red,incongruent,red,1.0,729.0,6.0,,1668182712757.0,1668182713486.0,1668182706813.0,0.0,0.0,1.0,Mixed_1000,10.0,Speed,7000.0,2000.0,1000.0
MainBlock,5cc8cab1f67ce800171cc5b2:TSS_RECONF_111022,,,,,,,,,,,,0.0,0.0,1.0,Mixed_1000,10.0,Speed,7000.0,2000.0,1000.0
MainBlock,5cc8cab1f67ce800171cc5b2:TSS_RECONF_111022,BLUE,blue,congruent,blue,1.0,881.0,1.0,,1668182720333.0,1668182721214.0,1668182720333.0,0.0,0.0,1.0,Mixed_1000,11.0,Accuracy,6000.0,1500.0,1000.0
MainBlock,5cc8cab1f67ce800171cc5b2:TSS_RECONF_111022,GREEN,red,incongruent,red,1.0,600.0,2.0,,1668182721717.0,1668182722317.0,1668182720333.0,0.0,0.0,1.0,Mixed_1000,11.0,Accuracy,6000.0,1500.0,1000.0
MainBlock,5cc8cab1f67ce800171cc5b2:TSS_RECONF_111022,BLUE,blue,congruent,blue,1.0,536.0,3.0,,1668182722821.0,1668182723357.0,1668182720333.0,0.0,0.0,1.0,Mixed_1000,11.0,Accuracy,6000.0,1500.0,1000.0
MainBlock,5cc8cab1f67ce800171cc5b2:TSS_RECONF_111022,GREEN,red,incongruent,red,1.0,576.0,4.0,,1668182723861.0,1668182724437.0,1668182720333.0,0.0,0.0,1.0,Mixed_1000,11.0,Accuracy,6000.0,1500.0,1000.0
MainBlock,5cc8cab1f67ce800171cc5b2:TSS_RECONF_111022,BLUE,green,incongruent,green,1.0,680.0,5.0,,1668182724941.0,1668182725621.0,1668182720333.0,0.0,0.0,1.0,Mixed_1000,11.0,Accuracy,6000.0,1500.0,1000.0
MainBlock,5cc8cab1f67ce800171cc5b2:TSS_RECONF_111022,,,,,,,,,,,,0.0,0.0,1.0,Mixed_1000,11.0,Accuracy,6000.0,1500.0,1000.0
MainBlock,5cc8cab1f67ce800171cc5b2:TSS_RECONF_111022,GREEN,green,congruent,green,1.0,800.0,1.0,,1668182733349.0,1668182734149.0,1668182733349.0,0.0,0.0,1.0,Mixed_1000,12.0,Speed,6000.0,2000.0,1000.0
MainBlock,5cc8cab1f67ce800171cc5b2:TSS_RECONF_111022,YELLOW,red,incongruent,red,1.0,792.0,2.0,,1668182734653.0,1668182735445.0,1668182733349.0,0.0,0.0,1.0,Mixed_1000,12.0,Speed,6000.0,2000.0,1000.0
MainBlock,5cc8cab1f67ce800171cc5b2:TSS_RECONF_111022,RED,blue,incongruent,blue,1.0,712.0,3.0,,1668182735949.0,1668182736661.0,1668182733349.0,0.0,0.0,1.0,Mixed_1000,12.0,Speed,6000.0,2000.0,1000.0
MainBlock,5cc8cab1f67ce800171cc5b2:TSS_RECONF_111022,BLUE,yellow,incongruent,yellow,1.0,584.0,4.0,,1668182737165.0,1668182737749.0,1668182733349.0,0.0,0.0,1.0,Mixed_1000,12.0,Speed,6000.0,2000.0,1000.0
MainBlock,5cc8cab1f67ce800171cc5b2:TSS_RECONF_111022,GREEN,green,congruent,green,1.0,560.0,5.0,,1668182738253.0,1668182738813.0,1668182733349.0,0.0,0.0,1.0,Mixed_1000,12.0,Speed,6000.0,2000.0,1000.0
MainBlock,5cc8cab1f67ce800171cc5b2:TSS_RECONF_111022,,,,,,,,,,,,0.0,0.0,1.0,Mixed_1000,12.0,Speed,6000.0,2000.0,1000.0
MainBlock,5cc8cab1f67ce800171cc5b2:TSS_RECONF_111022,GREEN,red,incongruent,red,1.0,655.0,1.0,,1668182745366.0,1668182746021.0,1668182745365.0,0.0,0.0,1.0,Mixed_1000,13.0,Accuracy,7000.0,1000.0,1000.0
MainBlock,5cc8cab1f67ce800171cc5b2:TSS_RECONF_111022,YELLOW,yellow,congruent,yellow,1.0,895.0,2.0,,1668182746525.0,1668182747420.0,1668182745365.0,0.0,0.0,1.0,Mixed_1000,13.0,Accuracy,7000.0,1000.0,1000.0
MainBlock,5cc8cab1f67ce800171cc5b2:TSS_RECONF_111022,RED,red,congruent,red,1.0,559.0,3.0,,1668182747925.0,1668182748484.0,1668182745365.0,0.0,0.0,1.0,Mixed_1000,13.0,Accuracy,7000.0,1000.0,1000.0
MainBlock,5cc8cab1f67ce800171cc5b2:TSS_RECONF_111022,GREEN,blue,incongruent,blue,1.0,1018.0,4.0,,1668182748989.0,1668182750007.0,1668182745365.0,0.0,0.0,1.0,Mixed_1000,13.0,Accuracy,7000.0,1000.0,1000.0
MainBlock,5cc8cab1f67ce800171cc5b2:TSS_RECONF_111022,RED,red,congruent,red,1.0,582.0,5.0,,1668182750513.0,1668182751095.0,1668182745365.0,0.0,0.0,1.0,Mixed_1000,13.0,Accuracy,7000.0,1000.0,1000.0
MainBlock,5cc8cab1f67ce800171cc5b2:TSS_RECONF_111022,BLUE,yellow,incongruent,yellow,1.0,710.0,6.0,,1668182751601.0,1668182752311.0,1668182745365.0,0.0,0.0,1.0,Mixed_1000,13.0,Accuracy,7000.0,1000.0,1000.0
MainBlock,5cc8cab1f67ce800171cc5b2:TSS_RECONF_111022,,,,,,,,,,,,0.0,0.0,1.0,Mixed_1000,13.0,Accuracy,7000.0,1000.0,1000.0
MainBlock,5cc8cab1f67ce800171cc5b2:TSS_RECONF_111022,GREEN,yellow,incongruent,yellow,1.0,614.0,1.0,,1668182759385.0,1668182759999.0,1668182759384.0,0.0,0.0,1.0,Mixed_1000,14.0,Speed,8000.0,2000.0,1000.0
MainBlock,5cc8cab1f67ce800171cc5b2:TSS_RECONF_111022,RED,red,congruent,red,1.0,350.0,2.0,,1668182760505.0,1668182760855.0,1668182759384.0,0.0,0.0,1.0,Mixed_1000,14.0,Speed,8000.0,2000.0,1000.0
MainBlock,5cc8cab1f67ce800171cc5b2:TSS_RECONF_111022,GREEN,blue,incongruent,blue,1.0,462.0,3.0,,1668182761361.0,1668182761823.0,1668182759384.0,0.0,0.0,1.0,Mixed_1000,14.0,Speed,8000.0,2000.0,1000.0
MainBlock,5cc8cab1f67ce800171cc5b2:TSS_RECONF_111022,YELLOW,yellow,congruent,yellow,1.0,541.0,4.0,,1668182762329.0,1668182762870.0,1668182759384.0,0.0,0.0,1.0,Mixed_1000,14.0,Speed,8000.0,2000.0,1000.0
MainBlock,5cc8cab1f67ce800171cc5b2:TSS_RECONF_111022,BLUE,red,incongruent,red,1.0,605.0,5.0,,1668182763377.0,1668182763982.0,1668182759384.0,0.0,0.0,1.0,Mixed_1000,14.0,Speed,8000.0,2000.0,1000.0
MainBlock,5cc8cab1f67ce800171cc5b2:TSS_RECONF_111022,RED,green,incongruent,green,1.0,733.0,6.0,,1668182764489.0,1668182765222.0,1668182759384.0,0.0,0.0,1.0,Mixed_1000,14.0,Speed,8000.0,2000.0,1000.0
MainBlock,5cc8cab1f67ce800171cc5b2:TSS_RECONF_111022,YELLOW,yellow,congruent,yellow,1.0,589.0,7.0,,1668182765729.0,1668182766318.0,1668182759384.0,0.0,0.0,1.0,Mixed_1000,14.0,Speed,8000.0,2000.0,1000.0
MainBlock,5cc8cab1f67ce800171cc5b2:TSS_RECONF_111022,,,,,,,,,,,,0.0,0.0,1.0,Mixed_1000,14.0,Speed,8000.0,2000.0,1000.0
MainBlock,5cc8cab1f67ce800171cc5b2:TSS_RECONF_111022,GREEN,blue,incongruent,blue,1.0,909.0,1.0,,1668182773401.0,1668182774310.0,1668182773400.0,0.0,0.0,1.0,Mixed_1000,15.0,Accuracy,6000.0,1000.0,1000.0
MainBlock,5cc8cab1f67ce800171cc5b2:TSS_RECONF_111022,RED,red,congruent,red,1.0,1093.0,2.0,,1668182774817.0,1668182775910.0,1668182773400.0,0.0,0.0,1.0,Mixed_1000,15.0,Accuracy,6000.0,1000.0,1000.0
MainBlock,5cc8cab1f67ce800171cc5b2:TSS_RECONF_111022,GREEN,yellow,incongruent,yellow,1.0,709.0,3.0,,1668182776417.0,1668182777126.0,1668182773400.0,0.0,0.0,1.0,Mixed_1000,15.0,Accuracy,6000.0,1000.0,1000.0
MainBlock,5cc8cab1f67ce800171cc5b2:TSS_RECONF_111022,BLUE,blue,congruent,blue,1.0,661.0,4.0,,1668182777633.0,1668182778294.0,1668182773400.0,0.0,0.0,1.0,Mixed_1000,15.0,Accuracy,6000.0,1000.0,1000.0
MainBlock,5cc8cab1f67ce800171cc5b2:TSS_RECONF_111022,,,,,,,,,,,,0.0,0.0,1.0,Mixed_1000,15.0,Accuracy,6000.0,1000.0,1000.0
MainBlock,5cc8cab1f67ce800171cc5b2:TSS_RECONF_111022,YELLOW,yellow,congruent,yellow,1.0,725.0,1.0,,1668182786417.0,1668182787142.0,1668182786416.0,0.0,0.0,1.0,Mixed_1000,16.0,Speed,7500.0,2000.0,1000.0
MainBlock,5cc8cab1f67ce800171cc5b2:TSS_RECONF_111022,BLUE,green,incongruent,green,1.0,868.0,2.0,,1668182787649.0,1668182788517.0,1668182786416.0,0.0,0.0,1.0,Mixed_1000,16.0,Speed,7500.0,2000.0,1000.0
MainBlock,5cc8cab1f67ce800171cc5b2:TSS_RECONF_111022,RED,blue,incongruent,blue,1.0,620.0,3.0,,1668182789025.0,1668182789645.0,1668182786416.0,0.0,0.0,1.0,Mixed_1000,16.0,Speed,7500.0,2000.0,1000.0
MainBlock,5cc8cab1f67ce800171cc5b2:TSS_RECONF_111022,GREEN,red,incongruent,red,1.0,420.0,4.0,,1668182790153.0,1668182790573.0,1668182786416.0,0.0,0.0,1.0,Mixed_1000,16.0,Speed,7500.0,2000.0,1000.0
MainBlock,5cc8cab1f67ce800171cc5b2:TSS_RECONF_111022,YELLOW,yellow,congruent,yellow,1.0,556.0,5.0,,1668182791081.0,1668182791637.0,1668182786416.0,0.0,0.0,1.0,Mixed_1000,16.0,Speed,7500.0,2000.0,1000.0
MainBlock,5cc8cab1f67ce800171cc5b2:TSS_RECONF_111022,GREEN,green,congruent,green,1.0,356.0,6.0,,1668182792145.0,1668182792501.0,1668182786416.0,0.0,0.0,1.0,Mixed_1000,16.0,Speed,7500.0,2000.0,1000.0
MainBlock,5cc8cab1f67ce800171cc5b2:TSS_RECONF_111022,BLUE,blue,congruent,blue,1.0,452.0,7.0,,1668182793009.0,1668182793461.0,1668182786416.0,0.0,0.0,1.0,Mixed_1000,16.0,Speed,7500.0,2000.0,1000.0
MainBlock,5cc8cab1f67ce800171cc5b2:TSS_RECONF_111022,,,,,,,,,,,,0.0,0.0,1.0,Mixed_1000,16.0,Speed,7500.0,2000.0,1000.0
MainBlock,5cc8cab1f67ce800171cc5b2:TSS_RECONF_111022,RED,yellow,incongruent,yellow,1.0,788.0,1.0,,1668182800441.0,1668182801229.0,1668182800440.0,0.0,0.0,1.0,Mixed_1000,17.0,Accuracy,6000.0,1500.0,1000.0
MainBlock,5cc8cab1f67ce800171cc5b2:TSS_RECONF_111022,BLUE,blue,congruent,blue,1.0,499.0,2.0,,1668182801737.0,1668182802236.0,1668182800440.0,0.0,0.0,1.0,Mixed_1000,17.0,Accuracy,6000.0,1500.0,1000.0
MainBlock,5cc8cab1f67ce800171cc5b2:TSS_RECONF_111022,RED,red,congruent,red,1.0,611.0,3.0,,1668182802745.0,1668182803356.0,1668182800440.0,0.0,0.0,1.0,Mixed_1000,17.0,Accuracy,6000.0,1500.0,1000.0
MainBlock,5cc8cab1f67ce800171cc5b2:TSS_RECONF_111022,GREEN,blue,incongruent,blue,1.0,1028.0,4.0,,1668182803864.0,1668182804892.0,1668182800440.0,0.0,0.0,1.0,Mixed_1000,17.0,Accuracy,6000.0,1500.0,1000.0
MainBlock,5cc8cab1f67ce800171cc5b2:TSS_RECONF_111022,YELLOW,yellow,congruent,yellow,1.0,643.0,5.0,,1668182805401.0,1668182806044.0,1668182800440.0,0.0,0.0,1.0,Mixed_1000,17.0,Accuracy,6000.0,1500.0,1000.0
MainBlock,5cc8cab1f67ce800171cc5b2:TSS_RECONF_111022,,,,,,,,,,,,0.0,0.0,1.0,Mixed_1000,17.0,Accuracy,6000.0,1500.0,1000.0
MainBlock,5cc8cab1f67ce800171cc5b2:TSS_RECONF_111022,GREEN,green,congruent,green,1.0,685.0,1.0,,1668182812459.0,1668182813144.0,1668182812459.0,0.0,0.0,1.0,Mixed_1000,18.0,Speed,7000.0,1000.0,1000.0
MainBlock,5cc8cab1f67ce800171cc5b2:TSS_RECONF_111022,YELLOW,red,incongruent,red,1.0,764.0,2.0,,1668182813651.0,1668182814415.0,1668182812459.0,0.0,0.0,1.0,Mixed_1000,18.0,Speed,7000.0,1000.0,1000.0
MainBlock,5cc8cab1f67ce800171cc5b2:TSS_RECONF_111022,BLUE,blue,congruent,blue,1.0,540.0,3.0,,1668182814923.0,1668182815463.0,1668182812459.0,0.0,0.0,1.0,Mixed_1000,18.0,Speed,7000.0,1000.0,1000.0
MainBlock,5cc8cab1f67ce800171cc5b2:TSS_RECONF_111022,GREEN,yellow,incongruent,yellow,1.0,468.0,4.0,,1668182815971.0,1668182816439.0,1668182812459.0,0.0,0.0,1.0,Mixed_1000,18.0,Speed,7000.0,1000.0,1000.0
MainBlock,5cc8cab1f67ce800171cc5b2:TSS_RECONF_111022,BLUE,blue,congruent,blue,1.0,500.0,5.0,,1668182816947.0,1668182817447.0,1668182812459.0,0.0,0.0,1.0,Mixed_1000,18.0,Speed,7000.0,1000.0,1000.0
MainBlock,5cc8cab1f67ce800171cc5b2:TSS_RECONF_111022,RED,green,incongruent,green,1.0,860.0,6.0,,1668182817955.0,1668182818815.0,1668182812459.0,0.0,0.0,1.0,Mixed_1000,18.0,Speed,7000.0,1000.0,1000.0
MainBlock,5cc8cab1f67ce800171cc5b2:TSS_RECONF_111022,,,,,,,,,,,,0.0,0.0,1.0,Mixed_1000,18.0,Speed,7000.0,1000.0,1000.0
MainBlock,5cc8cab1f67ce800171cc5b2:TSS_RECONF_111022,GREEN,yellow,incongruent,yellow,1.0,652.0,1.0,,1668182825979.0,1668182826631.0,1668182825979.0,0.0,0.0,1.0,Mixed_1000,19.0,Accuracy,6500.0,1500.0,1000.0
MainBlock,5cc8cab1f67ce800171cc5b2:TSS_RECONF_111022,BLUE,blue,congruent,blue,1.0,619.0,2.0,,1668182827139.0,1668182827758.0,1668182825979.0,0.0,0.0,1.0,Mixed_1000,19.0,Accuracy,6500.0,1500.0,1000.0
MainBlock,5cc8cab1f67ce800171cc5b2:TSS_RECONF_111022,YELLOW,yellow,congruent,yellow,1.0,611.0,3.0,,1668182828267.0,1668182828878.0,1668182825979.0,0.0,0.0,1.0,Mixed_1000,19.0,Accuracy,6500.0,1500.0,1000.0
MainBlock,5cc8cab1f67ce800171cc5b2:TSS_RECONF_111022,GREEN,blue,incongruent,blue,1.0,1131.0,4.0,,1668182829387.0,1668182830518.0,1668182825979.0,0.0,0.0,1.0,Mixed_1000,19.0,Accuracy,6500.0,1500.0,1000.0
MainBlock,5cc8cab1f67ce800171cc5b2:TSS_RECONF_111022,RED,yellow,incongruent,yellow,1.0,875.0,5.0,,1668182831027.0,1668182831902.0,1668182825979.0,0.0,0.0,1.0,Mixed_1000,19.0,Accuracy,6500.0,1500.0,1000.0
MainBlock,5cc8cab1f67ce800171cc5b2:TSS_RECONF_111022,,,,,,,,,,,,0.0,0.0,1.0,Mixed_1000,19.0,Accuracy,6500.0,1500.0,1000.0
MainBlock,5cc8cab1f67ce800171cc5b2:TSS_RECONF_111022,RED,red,congruent,red,1.0,579.0,1.0,,1668182838995.0,1668182839574.0,1668182838995.0,0.0,0.0,1.0,Mixed_1000,20.0,Speed,6500.0,1500.0,1000.0
MainBlock,5cc8cab1f67ce800171cc5b2:TSS_RECONF_111022,GREEN,blue,incongruent,green,0.0,787.0,2.0,,1668182840075.0,1668182840862.0,1668182838995.0,0.0,0.0,1.0,Mixed_1000,20.0,Speed,6500.0,1500.0,1000.0
MainBlock,5cc8cab1f67ce800171cc5b2:TSS_RECONF_111022,RED,red,congruent,red,1.0,618.0,3.0,,1668182841363.0,1668182841981.0,1668182838995.0,0.0,0.0,1.0,Mixed_1000,20.0,Speed,6500.0,1500.0,1000.0
MainBlock,5cc8cab1f67ce800171cc5b2:TSS_RECONF_111022,GREEN,yellow,incongruent,yellow,1.0,554.0,4.0,,1668182842483.0,1668182843037.0,1668182838995.0,0.0,0.0,1.0,Mixed_1000,20.0,Speed,6500.0,1500.0,1000.0
MainBlock,5cc8cab1f67ce800171cc5b2:TSS_RECONF_111022,RED,red,congruent,red,1.0,683.0,5.0,,1668182843539.0,1668182844222.0,1668182838995.0,0.0,0.0,1.0,Mixed_1000,20.0,Speed,6500.0,1500.0,1000.0
MainBlock,5cc8cab1f67ce800171cc5b2:TSS_RECONF_111022,YELLOW,blue,incongruent,blue,1.0,690.0,6.0,,1668182844723.0,1668182845413.0,1668182838995.0,0.0,0.0,1.0,Mixed_1000,20.0,Speed,6500.0,1500.0,1000.0
MainBlock,5cc8cab1f67ce800171cc5b2:TSS_RECONF_111022,,,,,,,,,,,,0.0,0.0,1.0,Mixed_1000,20.0,Speed,6500.0,1500.0,1000.0
MainBlock,5cc8cab1f67ce800171cc5b2:TSS_RECONF_111022,GREEN,blue,incongruent,blue,1.0,863.0,1.0,,1668182896255.0,1668182897118.0,1668182896255.0,0.0,0.0,2.0,Mixed_500,1.0,Accuracy,7000.0,2000.0,500.0
MainBlock,5cc8cab1f67ce800171cc5b2:TSS_RECONF_111022,RED,red,congruent,red,1.0,623.0,2.0,,1668182897623.0,1668182898246.0,1668182896255.0,0.0,0.0,2.0,Mixed_500,1.0,Accuracy,7000.0,2000.0,500.0
MainBlock,5cc8cab1f67ce800171cc5b2:TSS_RECONF_111022,BLUE,blue,congruent,blue,1.0,639.0,3.0,,1668182898751.0,1668182899390.0,1668182896255.0,0.0,0.0,2.0,Mixed_500,1.0,Accuracy,7000.0,2000.0,500.0
MainBlock,5cc8cab1f67ce800171cc5b2:TSS_RECONF_111022,YELLOW,red,incongruent,red,1.0,575.0,4.0,,1668182899895.0,1668182900470.0,1668182896255.0,0.0,0.0,2.0,Mixed_500,1.0,Accuracy,7000.0,2000.0,500.0
MainBlock,5cc8cab1f67ce800171cc5b2:TSS_RECONF_111022,BLUE,green,incongruent,green,1.0,631.0,5.0,,1668182900975.0,1668182901606.0,1668182896255.0,0.0,0.0,2.0,Mixed_500,1.0,Accuracy,7000.0,2000.0,500.0
MainBlock,5cc8cab1f67ce800171cc5b2:TSS_RECONF_111022,,,,,,,,,,,,0.0,0.0,2.0,Mixed_500,1.0,Accuracy,7000.0,2000.0,500.0
MainBlock,5cc8cab1f67ce800171cc5b2:TSS_RECONF_111022,BLUE,blue,congruent,blue,1.0,775.0,1.0,,1668182909775.0,1668182910550.0,1668182909775.0,0.0,0.0,2.0,Mixed_500,2.0,Speed,6500.0,2000.0,500.0
MainBlock,5cc8cab1f67ce800171cc5b2:TSS_RECONF_111022,GREEN,red,incongruent,red,1.0,607.0,2.0,,1668182911055.0,1668182911662.0,1668182909775.0,0.0,0.0,2.0,Mixed_500,2.0,Speed,6500.0,2000.0,500.0
MainBlock,5cc8cab1f67ce800171cc5b2:TSS_RECONF_111022,BLUE,blue,congruent,blue,1.0,519.0,3.0,,1668182912167.0,1668182912686.0,1668182909775.0,0.0,0.0,2.0,Mixed_500,2.0,Speed,6500.0,2000.0,500.0
MainBlock,5cc8cab1f67ce800171cc5b2:TSS_RECONF_111022,YELLOW,red,incongruent,red,1.0,591.0,4.0,,1668182913191.0,1668182913782.0,1668182909775.0,0.0,0.0,2.0,Mixed_500,2.0,Speed,6500.0,2000.0,500.0
MainBlock,5cc8cab1f67ce800171cc5b2:TSS_RECONF_111022,GREEN,blue,incongruent,blue,1.0,782.0,5.0,,1668182914287.0,1668182915069.0,1668182909775.0,0.0,0.0,2.0,Mixed_500,2.0,Speed,6500.0,2000.0,500.0
MainBlock,5cc8cab1f67ce800171cc5b2:TSS_RECONF_111022,,,,,,,,,,,,0.0,0.0,2.0,Mixed_500,2.0,Speed,6500.0,2000.0,500.0
MainBlock,5cc8cab1f67ce800171cc5b2:TSS_RECONF_111022,RED,red,congruent,red,1.0,670.0,1.0,,1668182922791.0,1668182923461.0,1668182922791.0,0.0,0.0,2.0,Mixed_500,3.0,Accuracy,8000.0,2000.0,500.0
MainBlock,5cc8cab1f67ce800171cc5b2:TSS_RECONF_111022,BLUE,yellow,incongruent,yellow,1.0,622.0,2.0,,1668182923967.0,1668182924589.0,1668182922791.0,0.0,0.0,2.0,Mixed_500,3.0,Accuracy,8000.0,2000.0,500.0
MainBlock,5cc8cab1f67ce800171cc5b2:TSS_RECONF_111022,RED,red,congruent,red,1.0,646.0,3.0,,1668182925095.0,1668182925741.0,1668182922791.0,0.0,0.0,2.0,Mixed_500,3.0,Accuracy,8000.0,2000.0,500.0
MainBlock,5cc8cab1f67ce800171cc5b2:TSS_RECONF_111022,BLUE,green,incongruent,green,1.0,950.0,4.0,,1668182926247.0,1668182927197.0,1668182922791.0,0.0,0.0,2.0,Mixed_500,3.0,Accuracy,8000.0,2000.0,500.0
MainBlock,5cc8cab1f67ce800171cc5b2:TSS_RECONF_111022,RED,red,congruent,red,1.0,806.0,5.0,,1668182927703.0,1668182928509.0,1668182922791.0,0.0,0.0,2.0,Mixed_500,3.0,Accuracy,8000.0,2000.0,500.0
MainBlock,5cc8cab1f67ce800171cc5b2:TSS_RECONF_111022,YELLOW,blue,incongruent,blue,1.0,830.0,6.0,,1668182929015.0,1668182929845.0,1668182922791.0,0.0,0.0,2.0,Mixed_500,3.0,Accuracy,8000.0,2000.0,500.0
MainBlock,5cc8cab1f67ce800171cc5b2:TSS_RECONF_111022,,,,,,,,,,,,0.0,0.0,2.0,Mixed_500,3.0,Accuracy,8000.0,2000.0,500.0
MainBlock,5cc8cab1f67ce800171cc5b2:TSS_RECONF_111022,GREEN,blue,incongruent,green,0.0,710.0,1.0,,1668182936807.0,1668182937517.0,1668182936807.0,0.0,0.0,2.0,Mixed_500,4.0,Speed,6500.0,1500.0,500.0
MainBlock,5cc8cab1f67ce800171cc5b2:TSS_RECONF_111022,YELLOW,yellow,congruent,yellow,1.0,549.0,2.0,,1668182938023.0,1668182938572.0,1668182936807.0,0.0,0.0,2.0,Mixed_500,4.0,Speed,6500.0,1500.0,500.0
MainBlock,5cc8cab1f67ce800171cc5b2:TSS_RECONF_111022,RED,blue,incongruent,blue,1.0,613.0,3.0,,1668182939079.0,1668182939692.0,1668182936807.0,0.0,0.0,2.0,Mixed_500,4.0,Speed,6500.0,1500.0,500.0
MainBlock,5cc8cab1f67ce800171cc5b2:TSS_RECONF_111022,YELLOW,yellow,congruent,yellow,1.0,541.0,4.0,,1668182940199.0,1668182940740.0,1668182936807.0,0.0,0.0,2.0,Mixed_500,4.0,Speed,6500.0,1500.0,500.0
MainBlock,5cc8cab1f67ce800171cc5b2:TSS_RECONF_111022,GREEN,green,congruent,green,1.0,592.0,5.0,,1668182941244.0,1668182941836.0,1668182936807.0,0.0,0.0,2.0,Mixed_500,4.0,Speed,6500.0,1500.0,500.0
MainBlock,5cc8cab1f67ce800171cc5b2:TSS_RECONF_111022,RED,yellow,incongruent,yellow,1.0,813.0,6.0,,1668182942343.0,1668182943156.0,1668182936807.0,0.0,0.0,2.0,Mixed_500,4.0,Speed,6500.0,1500.0,500.0
MainBlock,5cc8cab1f67ce800171cc5b2:TSS_RECONF_111022,,,,,,,,,,,,0.0,0.0,2.0,Mixed_500,4.0,Speed,6500.0,1500.0,500.0
MainBlock,5cc8cab1f67ce800171cc5b2:TSS_RECONF_111022,GREEN,yellow,incongruent,yellow,1.0,733.0,1.0,,1668182949831.0,1668182950564.0,1668182949831.0,0.0,0.0,2.0,Mixed_500,5.0,Accuracy,8000.0,2000.0,500.0
MainBlock,5cc8cab1f67ce800171cc5b2:TSS_RECONF_111022,BLUE,blue,congruent,blue,1.0,701.0,2.0,,1668182951071.0,1668182951772.0,1668182949831.0,0.0,0.0,2.0,Mixed_500,5.0,Accuracy,8000.0,2000.0,500.0
MainBlock,5cc8cab1f67ce800171cc5b2:TSS_RECONF_111022,RED,green,incongruent,green,1.0,797.0,3.0,,1668182952283.0,1668182953080.0,1668182949831.0,0.0,0.0,2.0,Mixed_500,5.0,Accuracy,8000.0,2000.0,500.0
MainBlock,5cc8cab1f67ce800171cc5b2:TSS_RECONF_111022,BLUE,blue,congruent,blue,1.0,732.0,4.0,,1668182953587.0,1668182954319.0,1668182949831.0,0.0,0.0,2.0,Mixed_500,5.0,Accuracy,8000.0,2000.0,500.0
MainBlock,5cc8cab1f67ce800171cc5b2:TSS_RECONF_111022,RED,red,congruent,red,1.0,772.0,5.0,,1668182954827.0,1668182955599.0,1668182949831.0,0.0,0.0,2.0,Mixed_500,5.0,Accuracy,8000.0,2000.0,500.0
MainBlock,5cc8cab1f67ce800171cc5b2:TSS_RECONF_111022,BLUE,yellow,incongruent,yellow,1.0,764.0,6.0,,1668182956107.0,1668182956871.0,1668182949831.0,0.0,0.0,2.0,Mixed_500,5.0,Accuracy,8000.0,2000.0,500.0
MainBlock,5cc8cab1f67ce800171cc5b2:TSS_RECONF_111022,,,,,,,,,,,,0.0,0.0,2.0,Mixed_500,5.0,Accuracy,8000.0,2000.0,500.0
MainBlock,5cc8cab1f67ce800171cc5b2:TSS_RECONF_111022,YELLOW,green,incongruent,green,1.0,827.0,1.0,,1668182963852.0,1668182964679.0,1668182963851.0,0.0,0.0,2.0,Mixed_500,6.0,Speed,7500.0,1500.0,500.0
MainBlock,5cc8cab1f67ce800171cc5b2:TSS_RECONF_111022,RED,red,congruent,red,1.0,540.0,2.0,,1668182965187.0,1668182965727.0,1668182963851.0,0.0,0.0,2.0,Mixed_500,6.0,Speed,7500.0,1500.0,500.0
MainBlock,5cc8cab1f67ce800171cc5b2:TSS_RECONF_111022,BLUE,yellow,incongruent,yellow,1.0,452.0,3.0,,1668182966235.0,1668182966687.0,1668182963851.0,0.0,0.0,2.0,Mixed_500,6.0,Speed,7500.0,1500.0,500.0
MainBlock,5cc8cab1f67ce800171cc5b2:TSS_RECONF_111022,YELLOW,red,incongruent,red,1.0,963.0,4.0,,1668182967195.0,1668182968159.0,1668182963851.0,0.0,0.0,2.0,Mixed_500,6.0,Speed,7500.0,1500.0,500.0
MainBlock,5cc8cab1f67ce800171cc5b2:TSS_RECONF_111022,BLUE,blue,congruent,blue,1.0,508.0,5.0,,1668182968667.0,1668182969175.0,1668182963851.0,0.0,0.0,2.0,Mixed_500,6.0,Speed,7500.0,1500.0,500.0
MainBlock,5cc8cab1f67ce800171cc5b2:TSS_RECONF_111022,YELLOW,red,incongruent,red,1.0,564.0,6.0,,1668182969683.0,1668182970247.0,1668182963851.0,0.0,0.0,2.0,Mixed_500,6.0,Speed,7500.0,1500.0,500.0
MainBlock,5cc8cab1f67ce800171cc5b2:TSS_RECONF_111022,,,,,,,,,,,,0.0,0.0,2.0,Mixed_500,6.0,Speed,7500.0,1500.0,500.0
MainBlock,5cc8cab1f67ce800171cc5b2:TSS_RECONF_111022,BLUE,blue,congruent,blue,1.0,851.0,1.0,,1668182977372.0,1668182978223.0,1668182977371.0,0.0,0.0,2.0,Mixed_500,7.0,Accuracy,7000.0,1500.0,500.0
MainBlock,5cc8cab1f67ce800171cc5b2:TSS_RECONF_111022,YELLOW,green,incongruent,green,1.0,771.0,2.0,,1668182978731.0,1668182979502.0,1668182977371.0,0.0,0.0,2.0,Mixed_500,7.0,Accuracy,7000.0,1500.0,500.0
MainBlock,5cc8cab1f67ce800171cc5b2:TSS_RECONF_111022,BLUE,blue,congruent,blue,1.0,563.0,3.0,,1668182980003.0,1668182980566.0,1668182977371.0,0.0,0.0,2.0,Mixed_500,7.0,Accuracy,7000.0,1500.0,500.0
MainBlock,5cc8cab1f67ce800171cc5b2:TSS_RECONF_111022,YELLOW,green,incongruent,green,1.0,602.0,4.0,,1668182981068.0,1668182981670.0,1668182977371.0,0.0,0.0,2.0,Mixed_500,7.0,Accuracy,7000.0,1500.0,500.0
MainBlock,5cc8cab1f67ce800171cc5b2:TSS_RECONF_111022,RED,red,congruent,red,1.0,547.0,5.0,,1668182982171.0,1668182982718.0,1668182977371.0,0.0,0.0,2.0,Mixed_500,7.0,Accuracy,7000.0,1500.0,500.0
MainBlock,5cc8cab1f67ce800171cc5b2:TSS_RECONF_111022,GREEN,yellow,incongruent,yellow,1.0,603.0,6.0,,1668182983219.0,1668182983822.0,1668182977371.0,0.0,0.0,2.0,Mixed_500,7.0,Accuracy,7000.0,1500.0,500.0
MainBlock,5cc8cab1f67ce800171cc5b2:TSS_RECONF_111022,,,,,,,,,,,,0.0,0.0,2.0,Mixed_500,7.0,Accuracy,7000.0,1500.0,500.0
MainBlock,5cc8cab1f67ce800171cc5b2:TSS_RECONF_111022,YELLOW,yellow,congruent,yellow,1.0,602.0,1.0,,1668182989892.0,1668182990494.0,1668182989891.0,0.0,0.0,2.0,Mixed_500,8.0,Speed,6500.0,1000.0,500.0
MainBlock,5cc8cab1f67ce800171cc5b2:TSS_RECONF_111022,RED,green,incongruent,green,1.0,818.0,2.0,,1668182990995.0,1668182991813.0,1668182989891.0,0.0,0.0,2.0,Mixed_500,8.0,Speed,6500.0,1000.0,500.0
MainBlock,5cc8cab1f67ce800171cc5b2:TSS_RECONF_111022,BLUE,blue,congruent,blue,1.0,418.0,3.0,,1668182992315.0,1668182992733.0,1668182989891.0,0.0,0.0,2.0,Mixed_500,8.0,Speed,6500.0,1000.0,500.0
MainBlock,5cc8cab1f67ce800171cc5b2:TSS_RECONF_111022,RED,yellow,incongruent,yellow,1.0,473.0,4.0,,1668182993236.0,1668182993709.0,1668182989891.0,0.0,0.0,2.0,Mixed_500,8.0,Speed,6500.0,1000.0,500.0
MainBlock,5cc8cab1f67ce800171cc5b2:TSS_RECONF_111022,BLUE,red,incongruent,red,1.0,402.0,5.0,,1668182994211.0,1668182994613.0,1668182989891.0,0.0,0.0,2.0,Mixed_500,8.0,Speed,6500.0,1000.0,500.0
MainBlock,5cc8cab1f67ce800171cc5b2:TSS_RECONF_111022,GREEN,yellow,incongruent,yellow,1.0,441.0,6.0,,1668182995116.0,1668182995557.0,1668182989891.0,0.0,0.0,2.0,Mixed_500,8.0,Speed,6500.0,1000.0,500.0
MainBlock,5cc8cab1f67ce800171cc5b2:TSS_RECONF_111022,,,,,,,,,,,,0.0,0.0,2.0,Mixed_500,8.0,Speed,6500.0,1000.0,500.0
MainBlock,5cc8cab1f67ce800171cc5b2:TSS_RECONF_111022,BLUE,blue,congruent,blue,1.0,689.0,1.0,,1668183002404.0,1668183003093.0,1668183002403.0,0.0,0.0,2.0,Mixed_500,9.0,Accuracy,6500.0,1500.0,500.0
MainBlock,5cc8cab1f67ce800171cc5b2:TSS_RECONF_111022,YELLOW,red,incongruent,red,1.0,666.0,2.0,,1668183003595.0,1668183004261.0,1668183002403.0,0.0,0.0,2.0,Mixed_500,9.0,Accuracy,6500.0,1500.0,500.0
MainBlock,5cc8cab1f67ce800171cc5b2:TSS_RECONF_111022,GREEN,green,congruent,green,1.0,754.0,3.0,,1668183004763.0,1668183005517.0,1668183002403.0,0.0,0.0,2.0,Mixed_500,9.0,Accuracy,6500.0,1500.0,500.0
MainBlock,5cc8cab1f67ce800171cc5b2:TSS_RECONF_111022,RED,yellow,incongruent,yellow,1.0,850.0,4.0,,1668183006019.0,1668183006869.0,1668183002403.0,0.0,0.0,2.0,Mixed_500,9.0,Accuracy,6500.0,1500.0,500.0
MainBlock,5cc8cab1f67ce800171cc5b2:TSS_RECONF_111022,BLUE,blue,congruent,green,0.0,793.0,5.0,,1668183007371.0,1668183008164.0,1668183002403.0,0.0,0.0,2.0,Mixed_500,9.0,Accuracy,6500.0,1500.0,500.0
MainBlock,5cc8cab1f67ce800171cc5b2:TSS_RECONF_111022,,,,,,,,,,,,0.0,0.0,2.0,Mixed_500,9.0,Accuracy,6500.0,1500.0,500.0
MainBlock,5cc8cab1f67ce800171cc5b2:TSS_RECONF_111022,RED,red,congruent,red,1.0,537.0,1.0,,1668183014431.0,1668183014968.0,1668183014430.0,0.0,0.0,2.0,Mixed_500,10.0,Speed,7500.0,1000.0,500.0
MainBlock,5cc8cab1f67ce800171cc5b2:TSS_RECONF_111022,YELLOW,green,incongruent,green,1.0,729.0,2.0,,1668183015470.0,1668183016199.0,1668183014430.0,0.0,0.0,2.0,Mixed_500,10.0,Speed,7500.0,1000.0,500.0
MainBlock,5cc8cab1f67ce800171cc5b2:TSS_RECONF_111022,RED,yellow,incongruent,yellow,1.0,673.0,3.0,,1668183016702.0,1668183017375.0,1668183014430.0,0.0,0.0,2.0,Mixed_500,10.0,Speed,7500.0,1000.0,500.0
MainBlock,5cc8cab1f67ce800171cc5b2:TSS_RECONF_111022,GREEN,green,congruent,green,1.0,697.0,4.0,,1668183017878.0,1668183018575.0,1668183014430.0,0.0,0.0,2.0,Mixed_500,10.0,Speed,7500.0,1000.0,500.0
MainBlock,5cc8cab1f67ce800171cc5b2:TSS_RECONF_111022,BLUE,blue,congruent,blue,1.0,481.0,5.0,,1668183019078.0,1668183019559.0,1668183014430.0,0.0,0.0,2.0,Mixed_500,10.0,Speed,7500.0,1000.0,500.0
MainBlock,5cc8cab1f67ce800171cc5b2:TSS_RECONF_111022,GREEN,red,incongruent,red,1.0,969.0,6.0,,1668183020062.0,1668183021031.0,1668183014430.0,0.0,0.0,2.0,Mixed_500,10.0,Speed,7500.0,1000.0,500.0
MainBlock,5cc8cab1f67ce800171cc5b2:TSS_RECONF_111022,,,,,,,,,,,,0.0,0.0,2.0,Mixed_500,10.0,Speed,7500.0,1000.0,500.0
MainBlock,5cc8cab1f67ce800171cc5b2:TSS_RECONF_111022,YELLOW,yellow,congruent,yellow,1.0,696.0,1.0,,1668183028447.0,1668183029143.0,1668183028446.0,0.0,0.0,2.0,Mixed_500,11.0,Accuracy,6000.0,2000.0,500.0
MainBlock,5cc8cab1f67ce800171cc5b2:TSS_RECONF_111022,BLUE,red,incongruent,red,1.0,592.0,2.0,,1668183029647.0,1668183030239.0,1668183028446.0,0.0,0.0,2.0,Mixed_500,11.0,Accuracy,6000.0,2000.0,500.0
MainBlock,5cc8cab1f67ce800171cc5b2:TSS_RECONF_111022,YELLOW,blue,incongruent,blue,1.0,1040.0,3.0,,1668183030742.0,1668183031782.0,1668183028446.0,0.0,0.0,2.0,Mixed_500,11.0,Accuracy,6000.0,2000.0,500.0
MainBlock,5cc8cab1f67ce800171cc5b2:TSS_RECONF_111022,BLUE,red,incongruent,red,1.0,679.0,4.0,,1668183032287.0,1668183032966.0,1668183028446.0,0.0,0.0,2.0,Mixed_500,11.0,Accuracy,6000.0,2000.0,500.0
MainBlock,5cc8cab1f67ce800171cc5b2:TSS_RECONF_111022,YELLOW,yellow,congruent,yellow,1.0,735.0,5.0,,1668183033471.0,1668183034206.0,1668183028446.0,0.0,0.0,2.0,Mixed_500,11.0,Accuracy,6000.0,2000.0,500.0
MainBlock,5cc8cab1f67ce800171cc5b2:TSS_RECONF_111022,,,,,,,,,,,,0.0,0.0,2.0,Mixed_500,11.0,Accuracy,6000.0,2000.0,500.0
MainBlock,5cc8cab1f67ce800171cc5b2:TSS_RECONF_111022,YELLOW,yellow,congruent,yellow,1.0,511.0,1.0,,1668183040463.0,1668183040974.0,1668183040462.0,0.0,0.0,2.0,Mixed_500,12.0,Speed,7500.0,1500.0,500.0
MainBlock,5cc8cab1f67ce800171cc5b2:TSS_RECONF_111022,BLUE,red,incongruent,red,1.0,559.0,2.0,,1668183041479.0,1668183042038.0,1668183040462.0,0.0,0.0,2.0,Mixed_500,12.0,Speed,7500.0,1500.0,500.0
MainBlock,5cc8cab1f67ce800171cc5b2:TSS_RECONF_111022,GREEN,green,congruent,green,1.0,527.0,3.0,,1668183042543.0,1668183043070.0,1668183040462.0,0.0,0.0,2.0,Mixed_500,12.0,Speed,7500.0,1500.0,500.0
MainBlock,5cc8cab1f67ce800171cc5b2:TSS_RECONF_111022,YELLOW,red,incongruent,red,1.0,672.0,4.0,,1668183043574.0,1668183044246.0,1668183040462.0,0.0,0.0,2.0,Mixed_500,12.0,Speed,7500.0,1500.0,500.0
MainBlock,5cc8cab1f67ce800171cc5b2:TSS_RECONF_111022,BLUE,blue,congruent,blue,1.0,575.0,5.0,,1668183044751.0,1668183045326.0,1668183040462.0,0.0,0.0,2.0,Mixed_500,12.0,Speed,7500.0,1500.0,500.0
MainBlock,5cc8cab1f67ce800171cc5b2:TSS_RECONF_111022,GREEN,red,incongruent,red,1.0,743.0,6.0,,1668183045831.0,1668183046574.0,1668183040462.0,0.0,0.0,2.0,Mixed_500,12.0,Speed,7500.0,1500.0,500.0
MainBlock,5cc8cab1f67ce800171cc5b2:TSS_RECONF_111022,RED,yellow,incongruent,yellow,1.0,462.0,7.0,,1668183047079.0,1668183047541.0,1668183040462.0,0.0,0.0,2.0,Mixed_500,12.0,Speed,7500.0,1500.0,500.0
MainBlock,5cc8cab1f67ce800171cc5b2:TSS_RECONF_111022,,,,,,,,,,,,0.0,0.0,2.0,Mixed_500,12.0,Speed,7500.0,1500.0,500.0
MainBlock,5cc8cab1f67ce800171cc5b2:TSS_RECONF_111022,YELLOW,yellow,congruent,yellow,1.0,814.0,1.0,,1668183053983.0,1668183054797.0,1668183053982.0,0.0,0.0,2.0,Mixed_500,13.0,Accuracy,7500.0,1500.0,500.0
MainBlock,5cc8cab1f67ce800171cc5b2:TSS_RECONF_111022,RED,green,incongruent,green,1.0,847.0,2.0,,1668183055302.0,1668183056149.0,1668183053982.0,0.0,0.0,2.0,Mixed_500,13.0,Accuracy,7500.0,1500.0,500.0
MainBlock,5cc8cab1f67ce800171cc5b2:TSS_RECONF_111022,BLUE,blue,congruent,blue,1.0,622.0,3.0,,1668183056655.0,1668183057277.0,1668183053982.0,0.0,0.0,2.0,Mixed_500,13.0,Accuracy,7500.0,1500.0,500.0
MainBlock,5cc8cab1f67ce800171cc5b2:TSS_RECONF_111022,RED,yellow,incongruent,yellow,1.0,894.0,4.0,,1668183057783.0,1668183058677.0,1668183053982.0,0.0,0.0,2.0,Mixed_500,13.0,Accuracy,7500.0,1500.0,500.0
MainBlock,5cc8cab1f67ce800171cc5b2:TSS_RECONF_111022,GREEN,green,congruent,green,1.0,718.0,5.0,,1668183059183.0,1668183059901.0,1668183053982.0,0.0,0.0,2.0,Mixed_500,13.0,Accuracy,7500.0,1500.0,500.0
MainBlock,5cc8cab1f67ce800171cc5b2:TSS_RECONF_111022,BLUE,yellow,incongruent,yellow,1.0,927.0,6.0,,1668183060406.0,1668183061333.0,1668183053982.0,0.0,0.0,2.0,Mixed_500,13.0,Accuracy,7500.0,1500.0,500.0
MainBlock,5cc8cab1f67ce800171cc5b2:TSS_RECONF_111022,,,,,,,,,,,,0.0,0.0,2.0,Mixed_500,13.0,Accuracy,7500.0,1500.0,500.0
MainBlock,5cc8cab1f67ce800171cc5b2:TSS_RECONF_111022,RED,red,congruent,red,1.0,558.0,1.0,,1668183067999.0,1668183068557.0,1668183067998.0,0.0,0.0,2.0,Mixed_500,14.0,Speed,7000.0,2000.0,500.0
MainBlock,5cc8cab1f67ce800171cc5b2:TSS_RECONF_111022,GREEN,yellow,incongruent,yellow,1.0,509.0,2.0,,1668183069063.0,1668183069572.0,1668183067998.0,0.0,0.0,2.0,Mixed_500,14.0,Speed,7000.0,2000.0,500.0
MainBlock,5cc8cab1f67ce800171cc5b2:TSS_RECONF_111022,RED,red,congruent,red,1.0,509.0,3.0,,1668183070079.0,1668183070588.0,1668183067998.0,0.0,0.0,2.0,Mixed_500,14.0,Speed,7000.0,2000.0,500.0
MainBlock,5cc8cab1f67ce800171cc5b2:TSS_RECONF_111022,YELLOW,blue,incongruent,blue,1.0,589.0,4.0,,1668183071095.0,1668183071684.0,1668183067998.0,0.0,0.0,2.0,Mixed_500,14.0,Speed,7000.0,2000.0,500.0
MainBlock,5cc8cab1f67ce800171cc5b2:TSS_RECONF_111022,RED,red,congruent,red,1.0,625.0,5.0,,1668183072191.0,1668183072816.0,1668183067998.0,0.0,0.0,2.0,Mixed_500,14.0,Speed,7000.0,2000.0,500.0
MainBlock,5cc8cab1f67ce800171cc5b2:TSS_RECONF_111022,BLUE,green,incongruent,green,1.0,742.0,6.0,,1668183073322.0,1668183074064.0,1668183067998.0,0.0,0.0,2.0,Mixed_500,14.0,Speed,7000.0,2000.0,500.0
MainBlock,5cc8cab1f67ce800171cc5b2:TSS_RECONF_111022,,,,,,,,,,,,0.0,0.0,2.0,Mixed_500,14.0,Speed,7000.0,2000.0,500.0
MainBlock,5cc8cab1f67ce800171cc5b2:TSS_RECONF_111022,GREEN,red,incongruent,red,1.0,789.0,1.0,,1668183080523.0,1668183081312.0,1668183080522.0,0.0,0.0,2.0,Mixed_500,15.0,Accuracy,8000.0,1000.0,500.0
MainBlock,5cc8cab1f67ce800171cc5b2:TSS_RECONF_111022,YELLOW,yellow,congruent,yellow,1.0,725.0,2.0,,1668183081818.0,1668183082543.0,1668183080522.0,0.0,0.0,2.0,Mixed_500,15.0,Accuracy,8000.0,1000.0,500.0
MainBlock,5cc8cab1f67ce800171cc5b2:TSS_RECONF_111022,GREEN,blue,incongruent,blue,1.0,1317.0,3.0,,1668183083050.0,1668183084367.0,1668183080522.0,0.0,0.0,2.0,Mixed_500,15.0,Accuracy,8000.0,1000.0,500.0
MainBlock,5cc8cab1f67ce800171cc5b2:TSS_RECONF_111022,RED,yellow,incongruent,yellow,1.0,788.0,4.0,,1668183084875.0,1668183085663.0,1668183080522.0,0.0,0.0,2.0,Mixed_500,15.0,Accuracy,8000.0,1000.0,500.0
MainBlock,5cc8cab1f67ce800171cc5b2:TSS_RECONF_111022,BLUE,blue,congruent,blue,1.0,972.0,5.0,,1668183086171.0,1668183087143.0,1668183080522.0,0.0,0.0,2.0,Mixed_500,15.0,Accuracy,8000.0,1000.0,500.0
MainBlock,5cc8cab1f67ce800171cc5b2:TSS_RECONF_111022,RED,green,incongruent,green,1.0,828.0,6.0,,1668183087651.0,1668183088479.0,1668183080522.0,0.0,0.0,2.0,Mixed_500,15.0,Accuracy,8000.0,1000.0,500.0
MainBlock,5cc8cab1f67ce800171cc5b2:TSS_RECONF_111022,,,,,,,,,,,,0.0,0.0,2.0,Mixed_500,15.0,Accuracy,8000.0,1000.0,500.0
MainBlock,5cc8cab1f67ce800171cc5b2:TSS_RECONF_111022,YELLOW,blue,incongruent,blue,1.0,612.0,1.0,,1668183094043.0,1668183094655.0,1668183094042.0,0.0,0.0,2.0,Mixed_500,16.0,Speed,6000.0,1000.0,500.0
MainBlock,5cc8cab1f67ce800171cc5b2:TSS_RECONF_111022,GREEN,green,congruent,green,1.0,436.0,2.0,,1668183095163.0,1668183095599.0,1668183094042.0,0.0,0.0,2.0,Mixed_500,16.0,Speed,6000.0,1000.0,500.0
MainBlock,5cc8cab1f67ce800171cc5b2:TSS_RECONF_111022,BLUE,blue,congruent,blue,1.0,460.0,3.0,,1668183096107.0,1668183096567.0,1668183094042.0,0.0,0.0,2.0,Mixed_500,16.0,Speed,6000.0,1000.0,500.0
MainBlock,5cc8cab1f67ce800171cc5b2:TSS_RECONF_111022,GREEN,red,incongruent,red,1.0,363.0,4.0,,1668183097075.0,1668183097438.0,1668183094042.0,0.0,0.0,2.0,Mixed_500,16.0,Speed,6000.0,1000.0,500.0
MainBlock,5cc8cab1f67ce800171cc5b2:TSS_RECONF_111022,YELLOW,yellow,congruent,yellow,1.0,412.0,5.0,,1668183097947.0,1668183098359.0,1668183094042.0,0.0,0.0,2.0,Mixed_500,16.0,Speed,6000.0,1000.0,500.0
MainBlock,5cc8cab1f67ce800171cc5b2:TSS_RECONF_111022,BLUE,red,incongruent,red,1.0,619.0,6.0,,1668183098867.0,1668183099486.0,1668183094042.0,0.0,0.0,2.0,Mixed_500,16.0,Speed,6000.0,1000.0,500.0
MainBlock,5cc8cab1f67ce800171cc5b2:TSS_RECONF_111022,,,,,,,,,,,,0.0,0.0,2.0,Mixed_500,16.0,Speed,6000.0,1000.0,500.0
MainBlock,5cc8cab1f67ce800171cc5b2:TSS_RECONF_111022,RED,red,congruent,red,1.0,643.0,1.0,,1668183105563.0,1668183106207.0,1668183105562.0,0.0,0.0,2.0,Mixed_500,17.0,Accuracy,6000.0,1000.0,500.0
MainBlock,5cc8cab1f67ce800171cc5b2:TSS_RECONF_111022,GREEN,yellow,incongruent,yellow,1.0,739.0,2.0,,1668183106715.0,1668183107454.0,1668183105562.0,0.0,0.0,2.0,Mixed_500,17.0,Accuracy,6000.0,1000.0,500.0
MainBlock,5cc8cab1f67ce800171cc5b2:TSS_RECONF_111022,YELLOW,red,incongruent,red,1.0,619.0,3.0,,1668183107963.0,1668183108582.0,1668183105562.0,0.0,0.0,2.0,Mixed_500,17.0,Accuracy,6000.0,1000.0,500.0
MainBlock,5cc8cab1f67ce800171cc5b2:TSS_RECONF_111022,BLUE,yellow,incongruent,yellow,1.0,923.0,4.0,,1668183109091.0,1668183110014.0,1668183105562.0,0.0,0.0,2.0,Mixed_500,17.0,Accuracy,6000.0,1000.0,500.0
MainBlock,5cc8cab1f67ce800171cc5b2:TSS_RECONF_111022,RED,red,congruent,red,1.0,675.0,5.0,,1668183110523.0,1668183111198.0,1668183105562.0,0.0,0.0,2.0,Mixed_500,17.0,Accuracy,6000.0,1000.0,500.0
MainBlock,5cc8cab1f67ce800171cc5b2:TSS_RECONF_111022,,,,,,,,,,,,0.0,0.0,2.0,Mixed_500,17.0,Accuracy,6000.0,1000.0,500.0
MainBlock,5cc8cab1f67ce800171cc5b2:TSS_RECONF_111022,RED,red,congruent,red,1.0,435.0,1.0,,1668183117083.0,1668183117518.0,1668183117082.0,0.0,0.0,2.0,Mixed_500,18.0,Speed,8000.0,1000.0,500.0
MainBlock,5cc8cab1f67ce800171cc5b2:TSS_RECONF_111022,GREEN,yellow,incongruent,yellow,1.0,458.0,2.0,,1668183118027.0,1668183118485.0,1668183117082.0,0.0,0.0,2.0,Mixed_500,18.0,Speed,8000.0,1000.0,500.0
MainBlock,5cc8cab1f67ce800171cc5b2:TSS_RECONF_111022,RED,green,incongruent,blue,0.0,770.0,3.0,,1668183118987.0,1668183119757.0,1668183117082.0,0.0,0.0,2.0,Mixed_500,18.0,Speed,8000.0,1000.0,500.0
MainBlock,5cc8cab1f67ce800171cc5b2:TSS_RECONF_111022,YELLOW,blue,incongruent,blue,1.0,562.0,4.0,,1668183120259.0,1668183120821.0,1668183117082.0,0.0,0.0,2.0,Mixed_500,18.0,Speed,8000.0,1000.0,500.0
MainBlock,5cc8cab1f67ce800171cc5b2:TSS_RECONF_111022,GREEN,green,congruent,green,1.0,402.0,5.0,,1668183121331.0,1668183121733.0,1668183117082.0,0.0,0.0,2.0,Mixed_500,18.0,Speed,8000.0,1000.0,500.0
MainBlock,5cc8cab1f67ce800171cc5b2:TSS_RECONF_111022,RED,red,congruent,red,1.0,530.0,6.0,,1668183122235.0,1668183122765.0,1668183117082.0,0.0,0.0,2.0,Mixed_500,18.0,Speed,8000.0,1000.0,500.0
MainBlock,5cc8cab1f67ce800171cc5b2:TSS_RECONF_111022,BLUE,blue,congruent,yellow,0.0,530.0,7.0,,1668183123267.0,1668183123797.0,1668183117082.0,0.0,0.0,2.0,Mixed_500,18.0,Speed,8000.0,1000.0,500.0
MainBlock,5cc8cab1f67ce800171cc5b2:TSS_RECONF_111022,,,,,,,,,,,,0.0,0.0,2.0,Mixed_500,18.0,Speed,8000.0,1000.0,500.0
MainBlock,5cc8cab1f67ce800171cc5b2:TSS_RECONF_111022,RED,green,incongruent,green,1.0,1170.0,1.0,,1668183130603.0,1668183131773.0,1668183130602.0,0.0,0.0,2.0,Mixed_500,19.0,Accuracy,6000.0,1000.0,500.0
MainBlock,5cc8cab1f67ce800171cc5b2:TSS_RECONF_111022,BLUE,blue,congruent,blue,1.0,506.0,2.0,,1668183132275.0,1668183132781.0,1668183130602.0,0.0,0.0,2.0,Mixed_500,19.0,Accuracy,6000.0,1000.0,500.0
MainBlock,5cc8cab1f67ce800171cc5b2:TSS_RECONF_111022,RED,yellow,incongruent,yellow,1.0,778.0,3.0,,1668183133286.0,1668183134064.0,1668183130602.0,0.0,0.0,2.0,Mixed_500,19.0,Accuracy,6000.0,1000.0,500.0
MainBlock,5cc8cab1f67ce800171cc5b2:TSS_RECONF_111022,YELLOW,green,incongruent,green,1.0,1073.0,4.0,,1668183134566.0,1668183135639.0,1668183130602.0,0.0,0.0,2.0,Mixed_500,19.0,Accuracy,6000.0,1000.0,500.0
MainBlock,5cc8cab1f67ce800171cc5b2:TSS_RECONF_111022,,,,,,,,,,,,0.0,0.0,2.0,Mixed_500,19.0,Accuracy,6000.0,1000.0,500.0
MainBlock,5cc8cab1f67ce800171cc5b2:TSS_RECONF_111022,YELLOW,yellow,congruent,yellow,1.0,641.0,1.0,,1668183142622.0,1668183143263.0,1668183142621.0,0.0,0.0,2.0,Mixed_500,20.0,Speed,7000.0,1500.0,500.0
MainBlock,5cc8cab1f67ce800171cc5b2:TSS_RECONF_111022,RED,blue,incongruent,blue,1.0,929.0,2.0,,1668183143766.0,1668183144695.0,1668183142621.0,0.0,0.0,2.0,Mixed_500,20.0,Speed,7000.0,1500.0,500.0
MainBlock,5cc8cab1f67ce800171cc5b2:TSS_RECONF_111022,YELLOW,red,incongruent,red,1.0,849.0,3.0,,1668183145198.0,1668183146047.0,1668183142621.0,0.0,0.0,2.0,Mixed_500,20.0,Speed,7000.0,1500.0,500.0
MainBlock,5cc8cab1f67ce800171cc5b2:TSS_RECONF_111022,BLUE,blue,congruent,blue,1.0,633.0,4.0,,1668183146550.0,1668183147183.0,1668183142621.0,0.0,0.0,2.0,Mixed_500,20.0,Speed,7000.0,1500.0,500.0
MainBlock,5cc8cab1f67ce800171cc5b2:TSS_RECONF_111022,RED,yellow,incongruent,yellow,1.0,641.0,5.0,,1668183147686.0,1668183148327.0,1668183142621.0,0.0,0.0,2.0,Mixed_500,20.0,Speed,7000.0,1500.0,500.0
MainBlock,5cc8cab1f67ce800171cc5b2:TSS_RECONF_111022,YELLOW,red,incongruent,red,1.0,753.0,6.0,,1668183148830.0,1668183149583.0,1668183142621.0,0.0,0.0,2.0,Mixed_500,20.0,Speed,7000.0,1500.0,500.0
MainBlock,5cc8cab1f67ce800171cc5b2:TSS_RECONF_111022,,,,,,,,,,,,0.0,0.0,2.0,Mixed_500,20.0,Speed,7000.0,1500.0,500.0
MainBlock,5cc8cab1f67ce800171cc5b2:TSS_RECONF_111022,BLUE,blue,congruent,blue,1.0,827.0,1.0,,1668183252324.0,1668183253151.0,1668183252323.0,0.0,0.0,3.0,Mixed_1500,1.0,Accuracy,8000.0,2000.0,1500.0
MainBlock,5cc8cab1f67ce800171cc5b2:TSS_RECONF_111022,GREEN,yellow,incongruent,yellow,1.0,723.0,2.0,,1668183253660.0,1668183254383.0,1668183252323.0,0.0,0.0,3.0,Mixed_1500,1.0,Accuracy,8000.0,2000.0,1500.0
MainBlock,5cc8cab1f67ce800171cc5b2:TSS_RECONF_111022,BLUE,blue,congruent,blue,1.0,627.0,3.0,,1668183254892.0,1668183255519.0,1668183252323.0,0.0,0.0,3.0,Mixed_1500,1.0,Accuracy,8000.0,2000.0,1500.0
MainBlock,5cc8cab1f67ce800171cc5b2:TSS_RECONF_111022,YELLOW,green,incongruent,green,1.0,619.0,4.0,,1668183256028.0,1668183256647.0,1668183252323.0,0.0,0.0,3.0,Mixed_1500,1.0,Accuracy,8000.0,2000.0,1500.0
MainBlock,5cc8cab1f67ce800171cc5b2:TSS_RECONF_111022,BLUE,blue,congruent,blue,1.0,539.0,5.0,,1668183257156.0,1668183257695.0,1668183252323.0,0.0,0.0,3.0,Mixed_1500,1.0,Accuracy,8000.0,2000.0,1500.0
MainBlock,5cc8cab1f67ce800171cc5b2:TSS_RECONF_111022,YELLOW,red,incongruent,red,1.0,587.0,6.0,,1668183258204.0,1668183258791.0,1668183252323.0,0.0,0.0,3.0,Mixed_1500,1.0,Accuracy,8000.0,2000.0,1500.0
MainBlock,5cc8cab1f67ce800171cc5b2:TSS_RECONF_111022,GREEN,green,congruent,green,1.0,739.0,7.0,,1668183259300.0,1668183260039.0,1668183252323.0,0.0,0.0,3.0,Mixed_1500,1.0,Accuracy,8000.0,2000.0,1500.0
MainBlock,5cc8cab1f67ce800171cc5b2:TSS_RECONF_111022,,,,,,,,,,,,0.0,0.0,3.0,Mixed_1500,1.0,Accuracy,8000.0,2000.0,1500.0
MainBlock,5cc8cab1f67ce800171cc5b2:TSS_RECONF_111022,GREEN,green,congruent,green,1.0,691.0,1.0,,1668183266844.0,1668183267535.0,1668183266843.0,0.0,0.0,3.0,Mixed_1500,2.0,Speed,7500.0,1000.0,1500.0
MainBlock,5cc8cab1f67ce800171cc5b2:TSS_RECONF_111022,RED,yellow,incongruent,yellow,1.0,683.0,2.0,,1668183268043.0,1668183268726.0,1668183266843.0,0.0,0.0,3.0,Mixed_1500,2.0,Speed,7500.0,1000.0,1500.0
MainBlock,5cc8cab1f67ce800171cc5b2:TSS_RECONF_111022,GREEN,green,congruent,green,1.0,571.0,3.0,,1668183269235.0,1668183269806.0,1668183266843.0,0.0,0.0,3.0,Mixed_1500,2.0,Speed,7500.0,1000.0,1500.0
MainBlock,5cc8cab1f67ce800171cc5b2:TSS_RECONF_111022,RED,blue,incongruent,blue,1.0,419.0,4.0,,1668183270315.0,1668183270734.0,1668183266843.0,0.0,0.0,3.0,Mixed_1500,2.0,Speed,7500.0,1000.0,1500.0
MainBlock,5cc8cab1f67ce800171cc5b2:TSS_RECONF_111022,GREEN,green,congruent,green,1.0,530.0,5.0,,1668183271236.0,1668183271766.0,1668183266843.0,0.0,0.0,3.0,Mixed_1500,2.0,Speed,7500.0,1000.0,1500.0
MainBlock,5cc8cab1f67ce800171cc5b2:TSS_RECONF_111022,BLUE,yellow,incongruent,yellow,1.0,427.0,6.0,,1668183272275.0,1668183272702.0,1668183266843.0,0.0,0.0,3.0,Mixed_1500,2.0,Speed,7500.0,1000.0,1500.0
MainBlock,5cc8cab1f67ce800171cc5b2:TSS_RECONF_111022,RED,red,congruent,red,1.0,395.0,7.0,,1668183273211.0,1668183273606.0,1668183266843.0,0.0,0.0,3.0,Mixed_1500,2.0,Speed,7500.0,1000.0,1500.0
MainBlock,5cc8cab1f67ce800171cc5b2:TSS_RECONF_111022,,,,,,,,,,,,0.0,0.0,3.0,Mixed_1500,2.0,Speed,7500.0,1000.0,1500.0
MainBlock,5cc8cab1f67ce800171cc5b2:TSS_RECONF_111022,YELLOW,yellow,congruent,yellow,1.0,859.0,1.0,,1668183281859.0,1668183282718.0,1668183281859.0,0.0,0.0,3.0,Mixed_1500,3.0,Accuracy,7500.0,2000.0,1500.0
MainBlock,5cc8cab1f67ce800171cc5b2:TSS_RECONF_111022,RED,green,incongruent,green,1.0,834.0,2.0,,1668183283219.0,1668183284053.0,1668183281859.0,0.0,0.0,3.0,Mixed_1500,3.0,Accuracy,7500.0,2000.0,1500.0
MainBlock,5cc8cab1f67ce800171cc5b2:TSS_RECONF_111022,GREEN,yellow,incongruent,yellow,1.0,578.0,3.0,,1668183284555.0,1668183285133.0,1668183281859.0,0.0,0.0,3.0,Mixed_1500,3.0,Accuracy,7500.0,2000.0,1500.0
MainBlock,5cc8cab1f67ce800171cc5b2:TSS_RECONF_111022,BLUE,red,incongruent,red,1.0,626.0,4.0,,1668183285635.0,1668183286261.0,1668183281859.0,0.0,0.0,3.0,Mixed_1500,3.0,Accuracy,7500.0,2000.0,1500.0
MainBlock,5cc8cab1f67ce800171cc5b2:TSS_RECONF_111022,YELLOW,yellow,congruent,yellow,1.0,674.0,5.0,,1668183286763.0,1668183287437.0,1668183281859.0,0.0,0.0,3.0,Mixed_1500,3.0,Accuracy,7500.0,2000.0,1500.0
MainBlock,5cc8cab1f67ce800171cc5b2:TSS_RECONF_111022,GREEN,red,incongruent,red,1.0,882.0,6.0,,1668183287939.0,1668183288821.0,1668183281859.0,0.0,0.0,3.0,Mixed_1500,3.0,Accuracy,7500.0,2000.0,1500.0
MainBlock,5cc8cab1f67ce800171cc5b2:TSS_RECONF_111022,,,,,,,,,,,,0.0,0.0,3.0,Mixed_1500,3.0,Accuracy,7500.0,2000.0,1500.0
MainBlock,5cc8cab1f67ce800171cc5b2:TSS_RECONF_111022,GREEN,green,congruent,green,1.0,506.0,1.0,,1668183295875.0,1668183296381.0,1668183295875.0,0.0,0.0,3.0,Mixed_1500,4.0,Speed,7500.0,1000.0,1500.0
MainBlock,5cc8cab1f67ce800171cc5b2:TSS_RECONF_111022,YELLOW,blue,incongruent,blue,1.0,434.0,2.0,,1668183296883.0,1668183297317.0,1668183295875.0,0.0,0.0,3.0,Mixed_1500,4.0,Speed,7500.0,1000.0,1500.0
MainBlock,5cc8cab1f67ce800171cc5b2:TSS_RECONF_111022,GREEN,red,incongruent,red,1.0,474.0,3.0,,1668183297819.0,1668183298293.0,1668183295875.0,0.0,0.0,3.0,Mixed_1500,4.0,Speed,7500.0,1000.0,1500.0
MainBlock,5cc8cab1f67ce800171cc5b2:TSS_RECONF_111022,YELLOW,green,incongruent,green,1.0,625.0,4.0,,1668183298795.0,1668183299420.0,1668183295875.0,0.0,0.0,3.0,Mixed_1500,4.0,Speed,7500.0,1000.0,1500.0
MainBlock,5cc8cab1f67ce800171cc5b2:TSS_RECONF_111022,BLUE,blue,congruent,blue,1.0,449.0,5.0,,1668183299923.0,1668183300372.0,1668183295875.0,0.0,0.0,3.0,Mixed_1500,4.0,Speed,7500.0,1000.0,1500.0
MainBlock,5cc8cab1f67ce800171cc5b2:TSS_RECONF_111022,GREEN,green,congruent,green,1.0,594.0,6.0,,1668183300875.0,1668183301469.0,1668183295875.0,0.0,0.0,3.0,Mixed_1500,4.0,Speed,7500.0,1000.0,1500.0
MainBlock,5cc8cab1f67ce800171cc5b2:TSS_RECONF_111022,YELLOW,yellow,congruent,yellow,1.0,426.0,7.0,,1668183301974.0,1668183302400.0,1668183295875.0,0.0,0.0,3.0,Mixed_1500,4.0,Speed,7500.0,1000.0,1500.0
MainBlock,5cc8cab1f67ce800171cc5b2:TSS_RECONF_111022,GREEN,red,incongruent,red,1.0,386.0,8.0,,1668183302902.0,1668183303288.0,1668183295875.0,0.0,0.0,3.0,Mixed_1500,4.0,Speed,7500.0,1000.0,1500.0
MainBlock,5cc8cab1f67ce800171cc5b2:TSS_RECONF_111022,,,,,,,,,,,,0.0,0.0,3.0,Mixed_1500,4.0,Speed,7500.0,1000.0,1500.0
MainBlock,5cc8cab1f67ce800171cc5b2:TSS_RECONF_111022,RED,red,congruent,red,1.0,625.0,1.0,,1668183310391.0,1668183311016.0,1668183310390.0,0.0,0.0,3.0,Mixed_1500,5.0,Accuracy,6500.0,1500.0,1500.0
MainBlock,5cc8cab1f67ce800171cc5b2:TSS_RECONF_111022,BLUE,yellow,incongruent,yellow,1.0,609.0,2.0,,1668183311518.0,1668183312127.0,1668183310390.0,0.0,0.0,3.0,Mixed_1500,5.0,Accuracy,6500.0,1500.0,1500.0
MainBlock,5cc8cab1f67ce800171cc5b2:TSS_RECONF_111022,RED,green,incongruent,green,1.0,636.0,3.0,,1668183312630.0,1668183313266.0,1668183310390.0,0.0,0.0,3.0,Mixed_1500,5.0,Accuracy,6500.0,1500.0,1500.0
MainBlock,5cc8cab1f67ce800171cc5b2:TSS_RECONF_111022,YELLOW,yellow,congruent,yellow,1.0,664.0,4.0,,1668183313775.0,1668183314439.0,1668183310390.0,0.0,0.0,3.0,Mixed_1500,5.0,Accuracy,6500.0,1500.0,1500.0
MainBlock,5cc8cab1f67ce800171cc5b2:TSS_RECONF_111022,GREEN,red,incongruent,red,1.0,809.0,5.0,,1668183314942.0,1668183315751.0,1668183310390.0,0.0,0.0,3.0,Mixed_1500,5.0,Accuracy,6500.0,1500.0,1500.0
MainBlock,5cc8cab1f67ce800171cc5b2:TSS_RECONF_111022,,,,,,,,,,,,0.0,0.0,3.0,Mixed_1500,5.0,Accuracy,6500.0,1500.0,1500.0
MainBlock,5cc8cab1f67ce800171cc5b2:TSS_RECONF_111022,RED,red,congruent,red,1.0,456.0,1.0,,1668183323911.0,1668183324367.0,1668183323910.0,0.0,0.0,3.0,Mixed_1500,6.0,Speed,7000.0,1500.0,1500.0
MainBlock,5cc8cab1f67ce800171cc5b2:TSS_RECONF_111022,BLUE,green,incongruent,green,1.0,656.0,2.0,,1668183324871.0,1668183325527.0,1668183323910.0,0.0,0.0,3.0,Mixed_1500,6.0,Speed,7000.0,1500.0,1500.0
MainBlock,5cc8cab1f67ce800171cc5b2:TSS_RECONF_111022,YELLOW,blue,incongruent,blue,1.0,455.0,3.0,,1668183326031.0,1668183326486.0,1668183323910.0,0.0,0.0,3.0,Mixed_1500,6.0,Speed,7000.0,1500.0,1500.0
MainBlock,5cc8cab1f67ce800171cc5b2:TSS_RECONF_111022,GREEN,yellow,incongruent,yellow,1.0,416.0,4.0,,1668183326990.0,1668183327406.0,1668183323910.0,0.0,0.0,3.0,Mixed_1500,6.0,Speed,7000.0,1500.0,1500.0
MainBlock,5cc8cab1f67ce800171cc5b2:TSS_RECONF_111022,BLUE,blue,congruent,blue,1.0,543.0,5.0,,1668183327911.0,1668183328455.0,1668183323910.0,0.0,0.0,3.0,Mixed_1500,6.0,Speed,7000.0,1500.0,1500.0
MainBlock,5cc8cab1f67ce800171cc5b2:TSS_RECONF_111022,GREEN,green,congruent,green,1.0,576.0,6.0,,1668183328958.0,1668183329534.0,1668183323910.0,0.0,0.0,3.0,Mixed_1500,6.0,Speed,7000.0,1500.0,1500.0
MainBlock,5cc8cab1f67ce800171cc5b2:TSS_RECONF_111022,YELLOW,blue,incongruent,blue,1.0,528.0,7.0,,1668183330038.0,1668183330566.0,1668183323910.0,0.0,0.0,3.0,Mixed_1500,6.0,Speed,7000.0,1500.0,1500.0
MainBlock,5cc8cab1f67ce800171cc5b2:TSS_RECONF_111022,,,,,,,,,,,,0.0,0.0,3.0,Mixed_1500,6.0,Speed,7000.0,1500.0,1500.0
MainBlock,5cc8cab1f67ce800171cc5b2:TSS_RECONF_111022,RED,red,congruent,red,1.0,679.0,1.0,,1668183338431.0,1668183339110.0,1668183338430.0,0.0,0.0,3.0,Mixed_1500,7.0,Accuracy,7500.0,2000.0,1500.0
MainBlock,5cc8cab1f67ce800171cc5b2:TSS_RECONF_111022,BLUE,green,incongruent,green,1.0,880.0,2.0,,1668183339614.0,1668183340494.0,1668183338430.0,0.0,0.0,3.0,Mixed_1500,7.0,Accuracy,7500.0,2000.0,1500.0
MainBlock,5cc8cab1f67ce800171cc5b2:TSS_RECONF_111022,RED,red,congruent,red,1.0,623.0,3.0,,1668183340998.0,1668183341621.0,1668183338430.0,0.0,0.0,3.0,Mixed_1500,7.0,Accuracy,7500.0,2000.0,1500.0
MainBlock,5cc8cab1f67ce800171cc5b2:TSS_RECONF_111022,YELLOW,green,incongruent,green,1.0,919.0,4.0,,1668183342127.0,1668183343046.0,1668183338430.0,0.0,0.0,3.0,Mixed_1500,7.0,Accuracy,7500.0,2000.0,1500.0
MainBlock,5cc8cab1f67ce800171cc5b2:TSS_RECONF_111022,BLUE,blue,congruent,blue,1.0,784.0,5.0,,1668183343550.0,1668183344334.0,1668183338430.0,0.0,0.0,3.0,Mixed_1500,7.0,Accuracy,7500.0,2000.0,1500.0
MainBlock,5cc8cab1f67ce800171cc5b2:TSS_RECONF_111022,YELLOW,green,incongruent,green,1.0,830.0,6.0,,1668183344839.0,1668183345670.0,1668183338430.0,0.0,0.0,3.0,Mixed_1500,7.0,Accuracy,7500.0,2000.0,1500.0
MainBlock,5cc8cab1f67ce800171cc5b2:TSS_RECONF_111022,,,,,,,,,,,,0.0,0.0,3.0,Mixed_1500,7.0,Accuracy,7500.0,2000.0,1500.0
MainBlock,5cc8cab1f67ce800171cc5b2:TSS_RECONF_111022,YELLOW,green,incongruent,green,1.0,774.0,1.0,,1668183352943.0,1668183353717.0,1668183352942.0,0.0,0.0,3.0,Mixed_1500,8.0,Speed,8000.0,1500.0,1500.0
MainBlock,5cc8cab1f67ce800171cc5b2:TSS_RECONF_111022,BLUE,blue,congruent,blue,1.0,406.0,2.0,,1668183354223.0,1668183354629.0,1668183352942.0,0.0,0.0,3.0,Mixed_1500,8.0,Speed,8000.0,1500.0,1500.0
MainBlock,5cc8cab1f67ce800171cc5b2:TSS_RECONF_111022,YELLOW,yellow,congruent,yellow,1.0,406.0,3.0,,1668183355135.0,1668183355541.0,1668183352942.0,0.0,0.0,3.0,Mixed_1500,8.0,Speed,8000.0,1500.0,1500.0
MainBlock,5cc8cab1f67ce800171cc5b2:TSS_RECONF_111022,GREEN,red,incongruent,red,1.0,382.0,4.0,,1668183356047.0,1668183356429.0,1668183352942.0,0.0,0.0,3.0,Mixed_1500,8.0,Speed,8000.0,1500.0,1500.0
MainBlock,5cc8cab1f67ce800171cc5b2:TSS_RECONF_111022,YELLOW,yellow,congruent,yellow,1.0,646.0,5.0,,1668183356935.0,1668183357581.0,1668183352942.0,0.0,0.0,3.0,Mixed_1500,8.0,Speed,8000.0,1500.0,1500.0
MainBlock,5cc8cab1f67ce800171cc5b2:TSS_RECONF_111022,BLUE,red,incongruent,red,1.0,534.0,6.0,,1668183358087.0,1668183358621.0,1668183352942.0,0.0,0.0,3.0,Mixed_1500,8.0,Speed,8000.0,1500.0,1500.0
MainBlock,5cc8cab1f67ce800171cc5b2:TSS_RECONF_111022,GREEN,green,congruent,green,1.0,438.0,7.0,,1668183359127.0,1668183359565.0,1668183352942.0,0.0,0.0,3.0,Mixed_1500,8.0,Speed,8000.0,1500.0,1500.0
MainBlock,5cc8cab1f67ce800171cc5b2:TSS_RECONF_111022,RED,yellow,incongruent,yellow,1.0,654.0,8.0,,1668183360071.0,1668183360725.0,1668183352942.0,0.0,0.0,3.0,Mixed_1500,8.0,Speed,8000.0,1500.0,1500.0
MainBlock,5cc8cab1f67ce800171cc5b2:TSS_RECONF_111022,,,,,,,,,,,,0.0,0.0,3.0,Mixed_1500,8.0,Speed,8000.0,1500.0,1500.0
MainBlock,5cc8cab1f67ce800171cc5b2:TSS_RECONF_111022,RED,red,congruent,red,1.0,910.0,1.0,,1668183367466.0,1668183368376.0,1668183367466.0,0.0,0.0,3.0,Mixed_1500,9.0,Accuracy,7000.0,1000.0,1500.0
MainBlock,5cc8cab1f67ce800171cc5b2:TSS_RECONF_111022,GREEN,yellow,incongruent,yellow,1.0,678.0,2.0,,1668183368882.0,1668183369560.0,1668183367466.0,0.0,0.0,3.0,Mixed_1500,9.0,Accuracy,7000.0,1000.0,1500.0
MainBlock,5cc8cab1f67ce800171cc5b2:TSS_RECONF_111022,RED,red,congruent,red,1.0,558.0,3.0,,1668183370066.0,1668183370624.0,1668183367466.0,0.0,0.0,3.0,Mixed_1500,9.0,Accuracy,7000.0,1000.0,1500.0
MainBlock,5cc8cab1f67ce800171cc5b2:TSS_RECONF_111022,YELLOW,green,incongruent,green,1.0,829.0,4.0,,1668183371130.0,1668183371959.0,1668183367466.0,0.0,0.0,3.0,Mixed_1500,9.0,Accuracy,7000.0,1000.0,1500.0
MainBlock,5cc8cab1f67ce800171cc5b2:TSS_RECONF_111022,RED,red,congruent,red,1.0,734.0,5.0,,1668183372466.0,1668183373200.0,1668183367466.0,0.0,0.0,3.0,Mixed_1500,9.0,Accuracy,7000.0,1000.0,1500.0
MainBlock,5cc8cab1f67ce800171cc5b2:TSS_RECONF_111022,BLUE,yellow,incongruent,yellow,1.0,685.0,6.0,,1668183373706.0,1668183374391.0,1668183367466.0,0.0,0.0,3.0,Mixed_1500,9.0,Accuracy,7000.0,1000.0,1500.0
MainBlock,5cc8cab1f67ce800171cc5b2:TSS_RECONF_111022,,,,,,,,,,,,0.0,0.0,3.0,Mixed_1500,9.0,Accuracy,7000.0,1000.0,1500.0
MainBlock,5cc8cab1f67ce800171cc5b2:TSS_RECONF_111022,RED,red,congruent,red,1.0,501.0,1.0,,1668183381482.0,1668183381983.0,1668183381482.0,0.0,0.0,3.0,Mixed_1500,10.0,Speed,6500.0,1500.0,1500.0
MainBlock,5cc8cab1f67ce800171cc5b2:TSS_RECONF_111022,BLUE,yellow,incongruent,yellow,1.0,381.0,2.0,,1668183382490.0,1668183382871.0,1668183381482.0,0.0,0.0,3.0,Mixed_1500,10.0,Speed,6500.0,1500.0,1500.0
MainBlock,5cc8cab1f67ce800171cc5b2:TSS_RECONF_111022,RED,red,congruent,red,1.0,477.0,3.0,,1668183383378.0,1668183383855.0,1668183381482.0,0.0,0.0,3.0,Mixed_1500,10.0,Speed,6500.0,1500.0,1500.0
MainBlock,5cc8cab1f67ce800171cc5b2:TSS_RECONF_111022,YELLOW,green,incongruent,blue,0.0,565.0,4.0,,1668183384362.0,1668183384927.0,1668183381482.0,0.0,0.0,3.0,Mixed_1500,10.0,Speed,6500.0,1500.0,1500.0
MainBlock,5cc8cab1f67ce800171cc5b2:TSS_RECONF_111022,RED,blue,incongruent,blue,1.0,421.0,5.0,,1668183385434.0,1668183385855.0,1668183381482.0,0.0,0.0,3.0,Mixed_1500,10.0,Speed,6500.0,1500.0,1500.0
MainBlock,5cc8cab1f67ce800171cc5b2:TSS_RECONF_111022,BLUE,red,incongruent,red,1.0,565.0,6.0,,1668183386362.0,1668183386927.0,1668183381482.0,0.0,0.0,3.0,Mixed_1500,10.0,Speed,6500.0,1500.0,1500.0
MainBlock,5cc8cab1f67ce800171cc5b2:TSS_RECONF_111022,,,,,,,,,,,,0.0,0.0,3.0,Mixed_1500,10.0,Speed,6500.0,1500.0,1500.0
MainBlock,5cc8cab1f67ce800171cc5b2:TSS_RECONF_111022,BLUE,blue,congruent,blue,1.0,709.0,1.0,,1668183395506.0,1668183396215.0,1668183395506.0,0.0,0.0,3.0,Mixed_1500,11.0,Accuracy,6500.0,2000.0,1500.0
MainBlock,5cc8cab1f67ce800171cc5b2:TSS_RECONF_111022,GREEN,red,incongruent,red,1.0,660.0,2.0,,1668183396722.0,1668183397382.0,1668183395506.0,0.0,0.0,3.0,Mixed_1500,11.0,Accuracy,6500.0,2000.0,1500.0
MainBlock,5cc8cab1f67ce800171cc5b2:TSS_RECONF_111022,BLUE,blue,congruent,blue,1.0,596.0,3.0,,1668183397890.0,1668183398486.0,1668183395506.0,0.0,0.0,3.0,Mixed_1500,11.0,Accuracy,6500.0,2000.0,1500.0
MainBlock,5cc8cab1f67ce800171cc5b2:TSS_RECONF_111022,RED,green,incongruent,green,1.0,748.0,4.0,,1668183398994.0,1668183399742.0,1668183395506.0,0.0,0.0,3.0,Mixed_1500,11.0,Accuracy,6500.0,2000.0,1500.0
MainBlock,5cc8cab1f67ce800171cc5b2:TSS_RECONF_111022,YELLOW,blue,incongruent,blue,1.0,620.0,5.0,,1668183400250.0,1668183400870.0,1668183395506.0,0.0,0.0,3.0,Mixed_1500,11.0,Accuracy,6500.0,2000.0,1500.0
MainBlock,5cc8cab1f67ce800171cc5b2:TSS_RECONF_111022,,,,,,,,,,,,0.0,0.0,3.0,Mixed_1500,11.0,Accuracy,6500.0,2000.0,1500.0
MainBlock,5cc8cab1f67ce800171cc5b2:TSS_RECONF_111022,BLUE,blue,congruent,blue,1.0,516.0,1.0,,1668183408522.0,1668183409038.0,1668183408522.0,0.0,0.0,3.0,Mixed_1500,12.0,Speed,8000.0,1000.0,1500.0
MainBlock,5cc8cab1f67ce800171cc5b2:TSS_RECONF_111022,GREEN,yellow,incongruent,yellow,1.0,523.0,2.0,,1668183409546.0,1668183410069.0,1668183408522.0,0.0,0.0,3.0,Mixed_1500,12.0,Speed,8000.0,1000.0,1500.0
MainBlock,5cc8cab1f67ce800171cc5b2:TSS_RECONF_111022,BLUE,blue,congruent,blue,1.0,483.0,3.0,,1668183410578.0,1668183411061.0,1668183408522.0,0.0,0.0,3.0,Mixed_1500,12.0,Speed,8000.0,1000.0,1500.0
MainBlock,5cc8cab1f67ce800171cc5b2:TSS_RECONF_111022,RED,green,incongruent,green,1.0,419.0,4.0,,1668183411570.0,1668183411989.0,1668183408522.0,0.0,0.0,3.0,Mixed_1500,12.0,Speed,8000.0,1000.0,1500.0
MainBlock,5cc8cab1f67ce800171cc5b2:TSS_RECONF_111022,YELLOW,yellow,congruent,yellow,1.0,507.0,5.0,,1668183412498.0,1668183413005.0,1668183408522.0,0.0,0.0,3.0,Mixed_1500,12.0,Speed,8000.0,1000.0,1500.0
MainBlock,5cc8cab1f67ce800171cc5b2:TSS_RECONF_111022,GREEN,red,incongruent,red,1.0,379.0,6.0,,1668183413514.0,1668183413893.0,1668183408522.0,0.0,0.0,3.0,Mixed_1500,12.0,Speed,8000.0,1000.0,1500.0
MainBlock,5cc8cab1f67ce800171cc5b2:TSS_RECONF_111022,BLUE,yellow,incongruent,yellow,1.0,435.0,7.0,,1668183414402.0,1668183414837.0,1668183408522.0,0.0,0.0,3.0,Mixed_1500,12.0,Speed,8000.0,1000.0,1500.0
MainBlock,5cc8cab1f67ce800171cc5b2:TSS_RECONF_111022,RED,red,congruent,red,1.0,579.0,8.0,,1668183415346.0,1668183415925.0,1668183408522.0,0.0,0.0,3.0,Mixed_1500,12.0,Speed,8000.0,1000.0,1500.0
MainBlock,5cc8cab1f67ce800171cc5b2:TSS_RECONF_111022,,,,,,,,,,,,0.0,0.0,3.0,Mixed_1500,12.0,Speed,8000.0,1000.0,1500.0
MainBlock,5cc8cab1f67ce800171cc5b2:TSS_RECONF_111022,RED,yellow,incongruent,yellow,1.0,802.0,1.0,,1668183424046.0,1668183424848.0,1668183424045.0,0.0,0.0,3.0,Mixed_1500,13.0,Accuracy,8000.0,2000.0,1500.0
MainBlock,5cc8cab1f67ce800171cc5b2:TSS_RECONF_111022,GREEN,green,congruent,green,1.0,603.0,2.0,,1668183425349.0,1668183425952.0,1668183424045.0,0.0,0.0,3.0,Mixed_1500,13.0,Accuracy,8000.0,2000.0,1500.0
MainBlock,5cc8cab1f67ce800171cc5b2:TSS_RECONF_111022,YELLOW,blue,incongruent,blue,1.0,659.0,3.0,,1668183426453.0,1668183427112.0,1668183424045.0,0.0,0.0,3.0,Mixed_1500,13.0,Accuracy,8000.0,2000.0,1500.0
MainBlock,5cc8cab1f67ce800171cc5b2:TSS_RECONF_111022,RED,green,incongruent,green,1.0,771.0,4.0,,1668183427613.0,1668183428384.0,1668183424045.0,0.0,0.0,3.0,Mixed_1500,13.0,Accuracy,8000.0,2000.0,1500.0
MainBlock,5cc8cab1f67ce800171cc5b2:TSS_RECONF_111022,BLUE,blue,congruent,blue,1.0,635.0,5.0,,1668183428885.0,1668183429520.0,1668183424045.0,0.0,0.0,3.0,Mixed_1500,13.0,Accuracy,8000.0,2000.0,1500.0
MainBlock,5cc8cab1f67ce800171cc5b2:TSS_RECONF_111022,GREEN,green,congruent,green,1.0,538.0,6.0,,1668183430022.0,1668183430560.0,1668183424045.0,0.0,0.0,3.0,Mixed_1500,13.0,Accuracy,8000.0,2000.0,1500.0
MainBlock,5cc8cab1f67ce800171cc5b2:TSS_RECONF_111022,BLUE,red,incongruent,red,1.0,619.0,7.0,,1668183431061.0,1668183431680.0,1668183424045.0,0.0,0.0,3.0,Mixed_1500,13.0,Accuracy,8000.0,2000.0,1500.0
MainBlock,5cc8cab1f67ce800171cc5b2:TSS_RECONF_111022,,,,,,,,,,,,0.0,0.0,3.0,Mixed_1500,13.0,Accuracy,8000.0,2000.0,1500.0
MainBlock,5cc8cab1f67ce800171cc5b2:TSS_RECONF_111022,BLUE,green,incongruent,green,1.0,666.0,1.0,,1668183439062.0,1668183439728.0,1668183439061.0,0.0,0.0,3.0,Mixed_1500,14.0,Speed,6000.0,1500.0,1500.0
MainBlock,5cc8cab1f67ce800171cc5b2:TSS_RECONF_111022,YELLOW,yellow,congruent,yellow,1.0,498.0,2.0,,1668183440229.0,1668183440727.0,1668183439061.0,0.0,0.0,3.0,Mixed_1500,14.0,Speed,6000.0,1500.0,1500.0
MainBlock,5cc8cab1f67ce800171cc5b2:TSS_RECONF_111022,GREEN,green,congruent,green,1.0,530.0,3.0,,1668183441229.0,1668183441759.0,1668183439061.0,0.0,0.0,3.0,Mixed_1500,14.0,Speed,6000.0,1500.0,1500.0
MainBlock,5cc8cab1f67ce800171cc5b2:TSS_RECONF_111022,BLUE,yellow,incongruent,yellow,1.0,569.0,4.0,,1668183442262.0,1668183442831.0,1668183439061.0,0.0,0.0,3.0,Mixed_1500,14.0,Speed,6000.0,1500.0,1500.0
MainBlock,5cc8cab1f67ce800171cc5b2:TSS_RECONF_111022,GREEN,green,congruent,green,1.0,642.0,5.0,,1668183443333.0,1668183443975.0,1668183439061.0,0.0,0.0,3.0,Mixed_1500,14.0,Speed,6000.0,1500.0,1500.0
MainBlock,5cc8cab1f67ce800171cc5b2:TSS_RECONF_111022,RED,blue,incongruent,blue,1.0,537.0,6.0,,1668183444478.0,1668183445015.0,1668183439061.0,0.0,0.0,3.0,Mixed_1500,14.0,Speed,6000.0,1500.0,1500.0
MainBlock,5cc8cab1f67ce800171cc5b2:TSS_RECONF_111022,,,,,,,,,,,,0.0,0.0,3.0,Mixed_1500,14.0,Speed,6000.0,1500.0,1500.0
MainBlock,5cc8cab1f67ce800171cc5b2:TSS_RECONF_111022,BLUE,yellow,incongruent,yellow,1.0,737.0,1.0,,1668183451582.0,1668183452319.0,1668183451581.0,0.0,0.0,3.0,Mixed_1500,15.0,Accuracy,6500.0,1000.0,1500.0
MainBlock,5cc8cab1f67ce800171cc5b2:TSS_RECONF_111022,GREEN,green,congruent,green,1.0,665.0,2.0,,1668183452821.0,1668183453486.0,1668183451581.0,0.0,0.0,3.0,Mixed_1500,15.0,Accuracy,6500.0,1000.0,1500.0
MainBlock,5cc8cab1f67ce800171cc5b2:TSS_RECONF_111022,BLUE,blue,congruent,blue,1.0,584.0,3.0,,1668183453990.0,1668183454574.0,1668183451581.0,0.0,0.0,3.0,Mixed_1500,15.0,Accuracy,6500.0,1000.0,1500.0
MainBlock,5cc8cab1f67ce800171cc5b2:TSS_RECONF_111022,RED,yellow,incongruent,yellow,1.0,672.0,4.0,,1668183455078.0,1668183455750.0,1668183451581.0,0.0,0.0,3.0,Mixed_1500,15.0,Accuracy,6500.0,1000.0,1500.0
MainBlock,5cc8cab1f67ce800171cc5b2:TSS_RECONF_111022,YELLOW,green,incongruent,green,1.0,944.0,5.0,,1668183456254.0,1668183457198.0,1668183451581.0,0.0,0.0,3.0,Mixed_1500,15.0,Accuracy,6500.0,1000.0,1500.0
MainBlock,5cc8cab1f67ce800171cc5b2:TSS_RECONF_111022,,,,,,,,,,,,0.0,0.0,3.0,Mixed_1500,15.0,Accuracy,6500.0,1000.0,1500.0
MainBlock,5cc8cab1f67ce800171cc5b2:TSS_RECONF_111022,GREEN,yellow,incongruent,yellow,1.0,496.0,1.0,,1668183464598.0,1668183465094.0,1668183464597.0,0.0,0.0,3.0,Mixed_1500,16.0,Speed,6000.0,1000.0,1500.0
MainBlock,5cc8cab1f67ce800171cc5b2:TSS_RECONF_111022,RED,red,congruent,red,1.0,368.0,2.0,,1668183465598.0,1668183465966.0,1668183464597.0,0.0,0.0,3.0,Mixed_1500,16.0,Speed,6000.0,1000.0,1500.0
MainBlock,5cc8cab1f67ce800171cc5b2:TSS_RECONF_111022,YELLOW,yellow,congruent,yellow,1.0,415.0,3.0,,1668183466470.0,1668183466885.0,1668183464597.0,0.0,0.0,3.0,Mixed_1500,16.0,Speed,6000.0,1000.0,1500.0
MainBlock,5cc8cab1f67ce800171cc5b2:TSS_RECONF_111022,RED,green,incongruent,green,1.0,393.0,4.0,,1668183467389.0,1668183467782.0,1668183464597.0,0.0,0.0,3.0,Mixed_1500,16.0,Speed,6000.0,1000.0,1500.0
MainBlock,5cc8cab1f67ce800171cc5b2:TSS_RECONF_111022,GREEN,blue,incongruent,blue,1.0,393.0,5.0,,1668183468286.0,1668183468679.0,1668183464597.0,0.0,0.0,3.0,Mixed_1500,16.0,Speed,6000.0,1000.0,1500.0
MainBlock,5cc8cab1f67ce800171cc5b2:TSS_RECONF_111022,RED,green,incongruent,green,1.0,592.0,6.0,,1668183469182.0,1668183469774.0,1668183464597.0,0.0,0.0,3.0,Mixed_1500,16.0,Speed,6000.0,1000.0,1500.0
MainBlock,5cc8cab1f67ce800171cc5b2:TSS_RECONF_111022,,,,,,,,,,,,0.0,0.0,3.0,Mixed_1500,16.0,Speed,6000.0,1000.0,1500.0
MainBlock,5cc8cab1f67ce800171cc5b2:TSS_RECONF_111022,BLUE,blue,congruent,blue,1.0,767.0,1.0,,1668183477614.0,1668183478381.0,1668183477613.0,0.0,0.0,3.0,Mixed_1500,17.0,Accuracy,7000.0,1500.0,1500.0
MainBlock,5cc8cab1f67ce800171cc5b2:TSS_RECONF_111022,RED,green,incongruent,green,1.0,711.0,2.0,,1668183478886.0,1668183479597.0,1668183477613.0,0.0,0.0,3.0,Mixed_1500,17.0,Accuracy,7000.0,1500.0,1500.0
MainBlock,5cc8cab1f67ce800171cc5b2:TSS_RECONF_111022,GREEN,blue,incongruent,blue,1.0,1119.0,3.0,,1668183480102.0,1668183481221.0,1668183477613.0,0.0,0.0,3.0,Mixed_1500,17.0,Accuracy,7000.0,1500.0,1500.0
MainBlock,5cc8cab1f67ce800171cc5b2:TSS_RECONF_111022,BLUE,red,incongruent,red,1.0,615.0,4.0,,1668183481726.0,1668183482341.0,1668183477613.0,0.0,0.0,3.0,Mixed_1500,17.0,Accuracy,7000.0,1500.0,1500.0
MainBlock,5cc8cab1f67ce800171cc5b2:TSS_RECONF_111022,GREEN,green,congruent,green,1.0,759.0,5.0,,1668183482846.0,1668183483605.0,1668183477613.0,0.0,0.0,3.0,Mixed_1500,17.0,Accuracy,7000.0,1500.0,1500.0
MainBlock,5cc8cab1f67ce800171cc5b2:TSS_RECONF_111022,,,,,,,,,,,,0.0,0.0,3.0,Mixed_1500,17.0,Accuracy,7000.0,1500.0,1500.0
MainBlock,5cc8cab1f67ce800171cc5b2:TSS_RECONF_111022,BLUE,yellow,incongruent,yellow,1.0,543.0,1.0,,1668183492137.0,1668183492680.0,1668183492136.0,0.0,0.0,3.0,Mixed_1500,18.0,Speed,6000.0,2000.0,1500.0
MainBlock,5cc8cab1f67ce800171cc5b2:TSS_RECONF_111022,RED,red,congruent,red,1.0,319.0,2.0,,1668183493185.0,1668183493504.0,1668183492136.0,0.0,0.0,3.0,Mixed_1500,18.0,Speed,6000.0,2000.0,1500.0
MainBlock,5cc8cab1f67ce800171cc5b2:TSS_RECONF_111022,GREEN,green,congruent,green,1.0,550.0,3.0,,1668183494009.0,1668183494559.0,1668183492136.0,0.0,0.0,3.0,Mixed_1500,18.0,Speed,6000.0,2000.0,1500.0
MainBlock,5cc8cab1f67ce800171cc5b2:TSS_RECONF_111022,BLUE,red,incongruent,red,1.0,622.0,4.0,,1668183495065.0,1668183495687.0,1668183492136.0,0.0,0.0,3.0,Mixed_1500,18.0,Speed,6000.0,2000.0,1500.0
MainBlock,5cc8cab1f67ce800171cc5b2:TSS_RECONF_111022,RED,green,incongruent,green,1.0,678.0,5.0,,1668183496193.0,1668183496871.0,1668183492136.0,0.0,0.0,3.0,Mixed_1500,18.0,Speed,6000.0,2000.0,1500.0
MainBlock,5cc8cab1f67ce800171cc5b2:TSS_RECONF_111022,BLUE,blue,congruent,blue,1.0,398.0,6.0,,1668183497377.0,1668183497775.0,1668183492136.0,0.0,0.0,3.0,Mixed_1500,18.0,Speed,6000.0,2000.0,1500.0
MainBlock,5cc8cab1f67ce800171cc5b2:TSS_RECONF_111022,,,,,,,,,,,,0.0,0.0,3.0,Mixed_1500,18.0,Speed,6000.0,2000.0,1500.0
MainBlock,5cc8cab1f67ce800171cc5b2:TSS_RECONF_111022,YELLOW,red,incongruent,red,1.0,806.0,1.0,,1668183504657.0,1668183505463.0,1668183504656.0,0.0,0.0,3.0,Mixed_1500,19.0,Accuracy,7000.0,1000.0,1500.0
MainBlock,5cc8cab1f67ce800171cc5b2:TSS_RECONF_111022,GREEN,green,congruent,green,1.0,782.0,2.0,,1668183505969.0,1668183506751.0,1668183504656.0,0.0,0.0,3.0,Mixed_1500,19.0,Accuracy,7000.0,1000.0,1500.0
MainBlock,5cc8cab1f67ce800171cc5b2:TSS_RECONF_111022,YELLOW,blue,incongruent,blue,1.0,598.0,3.0,,1668183507257.0,1668183507855.0,1668183504656.0,0.0,0.0,3.0,Mixed_1500,19.0,Accuracy,7000.0,1000.0,1500.0
MainBlock,5cc8cab1f67ce800171cc5b2:TSS_RECONF_111022,GREEN,green,congruent,green,1.0,766.0,4.0,,1668183508361.0,1668183509127.0,1668183504656.0,0.0,0.0,3.0,Mixed_1500,19.0,Accuracy,7000.0,1000.0,1500.0
MainBlock,5cc8cab1f67ce800171cc5b2:TSS_RECONF_111022,YELLOW,yellow,congruent,yellow,1.0,646.0,5.0,,1668183509633.0,1668183510279.0,1668183504656.0,0.0,0.0,3.0,Mixed_1500,19.0,Accuracy,7000.0,1000.0,1500.0
MainBlock,5cc8cab1f67ce800171cc5b2:TSS_RECONF_111022,,,,,,,,,,,,0.0,0.0,3.0,Mixed_1500,19.0,Accuracy,7000.0,1000.0,1500.0
MainBlock,5cc8cab1f67ce800171cc5b2:TSS_RECONF_111022,BLUE,blue,congruent,green,0.0,541.0,1.0,,1668183519177.0,1668183519718.0,1668183519177.0,0.0,0.0,3.0,Mixed_1500,20.0,Speed,6000.0,2000.0,1500.0
MainBlock,5cc8cab1f67ce800171cc5b2:TSS_RECONF_111022,GREEN,yellow,incongruent,yellow,1.0,493.0,2.0,,1668183520225.0,1668183520718.0,1668183519177.0,0.0,0.0,3.0,Mixed_1500,20.0,Speed,6000.0,2000.0,1500.0
MainBlock,5cc8cab1f67ce800171cc5b2:TSS_RECONF_111022,BLUE,blue,congruent,blue,1.0,621.0,3.0,,1668183521225.0,1668183521846.0,1668183519177.0,0.0,0.0,3.0,Mixed_1500,20.0,Speed,6000.0,2000.0,1500.0
MainBlock,5cc8cab1f67ce800171cc5b2:TSS_RECONF_111022,GREEN,red,incongruent,red,1.0,501.0,4.0,,1668183522353.0,1668183522854.0,1668183519177.0,0.0,0.0,3.0,Mixed_1500,20.0,Speed,6000.0,2000.0,1500.0
MainBlock,5cc8cab1f67ce800171cc5b2:TSS_RECONF_111022,RED,yellow,incongruent,yellow,1.0,397.0,5.0,,1668183523361.0,1668183523758.0,1668183519177.0,0.0,0.0,3.0,Mixed_1500,20.0,Speed,6000.0,2000.0,1500.0
MainBlock,5cc8cab1f67ce800171cc5b2:TSS_RECONF_111022,BLUE,blue,congruent,blue,1.0,557.0,6.0,,1668183524265.0,1668183524822.0,1668183519177.0,0.0,0.0,3.0,Mixed_1500,20.0,Speed,6000.0,2000.0,1500.0
MainBlock,5cc8cab1f67ce800171cc5b2:TSS_RECONF_111022,,,,,,,,,,,,0.0,0.0,3.0,Mixed_1500,20.0,Speed,6000.0,2000.0,1500.0
MainBlock,5cc8cab1f67ce800171cc5b2:TSS_RECONF_111022,GREEN,green,congruent,green,1.0,1440.0,1.0,,1668183610135.0,1668183611575.0,1668183610135.0,0.0,0.0,4.0,Fixed_1000_Accuracy,1.0,Accuracy,6000.0,2000.0,1000.0
MainBlock,5cc8cab1f67ce800171cc5b2:TSS_RECONF_111022,YELLOW,red,incongruent,red,1.0,808.0,2.0,,1668183612079.0,1668183612887.0,1668183610135.0,0.0,0.0,4.0,Fixed_1000_Accuracy,1.0,Accuracy,6000.0,2000.0,1000.0
MainBlock,5cc8cab1f67ce800171cc5b2:TSS_RECONF_111022,GREEN,green,congruent,green,1.0,784.0,3.0,,1668183613391.0,1668183614175.0,1668183610135.0,0.0,0.0,4.0,Fixed_1000_Accuracy,1.0,Accuracy,6000.0,2000.0,1000.0
MainBlock,5cc8cab1f67ce800171cc5b2:TSS_RECONF_111022,RED,blue,incongruent,blue,1.0,968.0,4.0,,1668183614679.0,1668183615647.0,1668183610135.0,0.0,0.0,4.0,Fixed_1000_Accuracy,1.0,Accuracy,6000.0,2000.0,1000.0
MainBlock,5cc8cab1f67ce800171cc5b2:TSS_RECONF_111022,,,,,,,,,,,,0.0,0.0,4.0,Fixed_1000_Accuracy,1.0,Accuracy,6000.0,2000.0,1000.0
MainBlock,5cc8cab1f67ce800171cc5b2:TSS_RECONF_111022,RED,green,incongruent,green,1.0,1135.0,1.0,,1668183622151.0,1668183623286.0,1668183622151.0,0.0,0.0,4.0,Fixed_1000_Accuracy,2.0,Accuracy,6500.0,1000.0,1000.0
MainBlock,5cc8cab1f67ce800171cc5b2:TSS_RECONF_111022,BLUE,blue,congruent,blue,1.0,544.0,2.0,,1668183623791.0,1668183624335.0,1668183622151.0,0.0,0.0,4.0,Fixed_1000_Accuracy,2.0,Accuracy,6500.0,1000.0,1000.0
MainBlock,5cc8cab1f67ce800171cc5b2:TSS_RECONF_111022,GREEN,red,incongruent,red,1.0,743.0,3.0,,1668183624839.0,1668183625582.0,1668183622151.0,0.0,0.0,4.0,Fixed_1000_Accuracy,2.0,Accuracy,6500.0,1000.0,1000.0
MainBlock,5cc8cab1f67ce800171cc5b2:TSS_RECONF_111022,YELLOW,green,incongruent,green,1.0,1056.0,4.0,,1668183626087.0,1668183627143.0,1668183622151.0,0.0,0.0,4.0,Fixed_1000_Accuracy,2.0,Accuracy,6500.0,1000.0,1000.0
MainBlock,5cc8cab1f67ce800171cc5b2:TSS_RECONF_111022,BLUE,blue,congruent,blue,1.0,519.0,5.0,,1668183627647.0,1668183628166.0,1668183622151.0,0.0,0.0,4.0,Fixed_1000_Accuracy,2.0,Accuracy,6500.0,1000.0,1000.0
MainBlock,5cc8cab1f67ce800171cc5b2:TSS_RECONF_111022,,,,,,,,,,,,0.0,0.0,4.0,Fixed_1000_Accuracy,2.0,Accuracy,6500.0,1000.0,1000.0
MainBlock,5cc8cab1f67ce800171cc5b2:TSS_RECONF_111022,BLUE,yellow,incongruent,yellow,1.0,951.0,1.0,,1668183634671.0,1668183635622.0,1668183634671.0,0.0,0.0,4.0,Fixed_1000_Accuracy,3.0,Accuracy,7500.0,1000.0,1000.0
MainBlock,5cc8cab1f67ce800171cc5b2:TSS_RECONF_111022,GREEN,green,congruent,green,1.0,678.0,2.0,,1668183636128.0,1668183636806.0,1668183634671.0,0.0,0.0,4.0,Fixed_1000_Accuracy,3.0,Accuracy,7500.0,1000.0,1000.0
MainBlock,5cc8cab1f67ce800171cc5b2:TSS_RECONF_111022,RED,yellow,incongruent,yellow,1.0,783.0,3.0,,1668183637311.0,1668183638094.0,1668183634671.0,0.0,0.0,4.0,Fixed_1000_Accuracy,3.0,Accuracy,7500.0,1000.0,1000.0
MainBlock,5cc8cab1f67ce800171cc5b2:TSS_RECONF_111022,YELLOW,green,incongruent,green,1.0,791.0,4.0,,1668183638599.0,1668183639390.0,1668183634671.0,0.0,0.0,4.0,Fixed_1000_Accuracy,3.0,Accuracy,7500.0,1000.0,1000.0
MainBlock,5cc8cab1f67ce800171cc5b2:TSS_RECONF_111022,RED,red,congruent,red,1.0,655.0,5.0,,1668183639895.0,1668183640550.0,1668183634671.0,0.0,0.0,4.0,Fixed_1000_Accuracy,3.0,Accuracy,7500.0,1000.0,1000.0
MainBlock,5cc8cab1f67ce800171cc5b2:TSS_RECONF_111022,GREEN,blue,incongruent,blue,1.0,839.0,6.0,,1668183641055.0,1668183641894.0,1668183634671.0,0.0,0.0,4.0,Fixed_1000_Accuracy,3.0,Accuracy,7500.0,1000.0,1000.0
MainBlock,5cc8cab1f67ce800171cc5b2:TSS_RECONF_111022,,,,,,,,,,,,0.0,0.0,4.0,Fixed_1000_Accuracy,3.0,Accuracy,7500.0,1000.0,1000.0
MainBlock,5cc8cab1f67ce800171cc5b2:TSS_RECONF_111022,GREEN,green,congruent,green,1.0,734.0,1.0,,1668183649192.0,1668183649926.0,1668183649191.0,0.0,0.0,4.0,Fixed_1000_Accuracy,4.0,Accuracy,7000.0,2000.0,1000.0
MainBlock,5cc8cab1f67ce800171cc5b2:TSS_RECONF_111022,BLUE,yellow,incongruent,yellow,1.0,774.0,2.0,,1668183650431.0,1668183651205.0,1668183649191.0,0.0,0.0,4.0,Fixed_1000_Accuracy,4.0,Accuracy,7000.0,2000.0,1000.0
MainBlock,5cc8cab1f67ce800171cc5b2:TSS_RECONF_111022,YELLOW,red,incongruent,red,1.0,758.0,3.0,,1668183651711.0,1668183652469.0,1668183649191.0,0.0,0.0,4.0,Fixed_1000_Accuracy,4.0,Accuracy,7000.0,2000.0,1000.0
MainBlock,5cc8cab1f67ce800171cc5b2:TSS_RECONF_111022,GREEN,green,congruent,green,1.0,622.0,4.0,,1668183652975.0,1668183653597.0,1668183649191.0,0.0,0.0,4.0,Fixed_1000_Accuracy,4.0,Accuracy,7000.0,2000.0,1000.0
MainBlock,5cc8cab1f67ce800171cc5b2:TSS_RECONF_111022,YELLOW,yellow,congruent,yellow,1.0,737.0,5.0,,1668183654103.0,1668183654840.0,1668183649191.0,0.0,0.0,4.0,Fixed_1000_Accuracy,4.0,Accuracy,7000.0,2000.0,1000.0
MainBlock,5cc8cab1f67ce800171cc5b2:TSS_RECONF_111022,,,,,,,,,,,,0.0,0.0,4.0,Fixed_1000_Accuracy,4.0,Accuracy,7000.0,2000.0,1000.0
MainBlock,5cc8cab1f67ce800171cc5b2:TSS_RECONF_111022,YELLOW,blue,incongruent,blue,1.0,1085.0,1.0,,1668183662715.0,1668183663800.0,1668183662714.0,0.0,0.0,4.0,Fixed_1000_Accuracy,5.0,Accuracy,6500.0,1500.0,1000.0
MainBlock,5cc8cab1f67ce800171cc5b2:TSS_RECONF_111022,GREEN,green,congruent,green,1.0,572.0,2.0,,1668183664307.0,1668183664879.0,1668183662714.0,0.0,0.0,4.0,Fixed_1000_Accuracy,5.0,Accuracy,6500.0,1500.0,1000.0
MainBlock,5cc8cab1f67ce800171cc5b2:TSS_RECONF_111022,RED,blue,incongruent,blue,1.0,828.0,3.0,,1668183665387.0,1668183666215.0,1668183662714.0,0.0,0.0,4.0,Fixed_1000_Accuracy,5.0,Accuracy,6500.0,1500.0,1000.0
MainBlock,5cc8cab1f67ce800171cc5b2:TSS_RECONF_111022,YELLOW,yellow,congruent,yellow,1.0,596.0,4.0,,1668183666723.0,1668183667319.0,1668183662714.0,0.0,0.0,4.0,Fixed_1000_Accuracy,5.0,Accuracy,6500.0,1500.0,1000.0
MainBlock,5cc8cab1f67ce800171cc5b2:TSS_RECONF_111022,BLUE,red,incongruent,red,1.0,565.0,5.0,,1668183667826.0,1668183668391.0,1668183662714.0,0.0,0.0,4.0,Fixed_1000_Accuracy,5.0,Accuracy,6500.0,1500.0,1000.0
MainBlock,5cc8cab1f67ce800171cc5b2:TSS_RECONF_111022,,,,,,,,,,,,0.0,0.0,4.0,Fixed_1000_Accuracy,5.0,Accuracy,6500.0,1500.0,1000.0
MainBlock,5cc8cab1f67ce800171cc5b2:TSS_RECONF_111022,YELLOW,yellow,congruent,yellow,1.0,844.0,1.0,,1668183675731.0,1668183676575.0,1668183675730.0,0.0,0.0,4.0,Fixed_1000_Accuracy,6.0,Accuracy,7000.0,1500.0,1000.0
MainBlock,5cc8cab1f67ce800171cc5b2:TSS_RECONF_111022,BLUE,green,incongruent,green,1.0,980.0,2.0,,1668183677083.0,1668183678063.0,1668183675730.0,0.0,0.0,4.0,Fixed_1000_Accuracy,6.0,Accuracy,7000.0,1500.0,1000.0
MainBlock,5cc8cab1f67ce800171cc5b2:TSS_RECONF_111022,YELLOW,yellow,congruent,yellow,1.0,628.0,3.0,,1668183678571.0,1668183679199.0,1668183675730.0,0.0,0.0,4.0,Fixed_1000_Accuracy,6.0,Accuracy,7000.0,1500.0,1000.0
MainBlock,5cc8cab1f67ce800171cc5b2:TSS_RECONF_111022,RED,blue,incongruent,blue,1.0,924.0,4.0,,1668183679707.0,1668183680631.0,1668183675730.0,0.0,0.0,4.0,Fixed_1000_Accuracy,6.0,Accuracy,7000.0,1500.0,1000.0
MainBlock,5cc8cab1f67ce800171cc5b2:TSS_RECONF_111022,YELLOW,yellow,congruent,yellow,1.0,796.0,5.0,,1668183681139.0,1668183681935.0,1668183675730.0,0.0,0.0,4.0,Fixed_1000_Accuracy,6.0,Accuracy,7000.0,1500.0,1000.0
MainBlock,5cc8cab1f67ce800171cc5b2:TSS_RECONF_111022,,,,,,,,,,,,0.0,0.0,4.0,Fixed_1000_Accuracy,6.0,Accuracy,7000.0,1500.0,1000.0
MainBlock,5cc8cab1f67ce800171cc5b2:TSS_RECONF_111022,YELLOW,blue,incongruent,blue,1.0,756.0,1.0,,1668183689747.0,1668183690503.0,1668183689746.0,0.0,0.0,4.0,Fixed_1000_Accuracy,7.0,Accuracy,8000.0,2000.0,1000.0
MainBlock,5cc8cab1f67ce800171cc5b2:TSS_RECONF_111022,GREEN,green,congruent,green,1.0,547.0,2.0,,1668183691011.0,1668183691558.0,1668183689746.0,0.0,0.0,4.0,Fixed_1000_Accuracy,7.0,Accuracy,8000.0,2000.0,1000.0
MainBlock,5cc8cab1f67ce800171cc5b2:TSS_RECONF_111022,YELLOW,yellow,congruent,yellow,1.0,603.0,3.0,,1668183692067.0,1668183692670.0,1668183689746.0,0.0,0.0,4.0,Fixed_1000_Accuracy,7.0,Accuracy,8000.0,2000.0,1000.0
MainBlock,5cc8cab1f67ce800171cc5b2:TSS_RECONF_111022,GREEN,blue,incongruent,blue,1.0,755.0,4.0,,1668183693179.0,1668183693934.0,1668183689746.0,0.0,0.0,4.0,Fixed_1000_Accuracy,7.0,Accuracy,8000.0,2000.0,1000.0
MainBlock,5cc8cab1f67ce800171cc5b2:TSS_RECONF_111022,RED,red,congruent,red,1.0,539.0,5.0,,1668183694443.0,1668183694982.0,1668183689746.0,0.0,0.0,4.0,Fixed_1000_Accuracy,7.0,Accuracy,8000.0,2000.0,1000.0
MainBlock,5cc8cab1f67ce800171cc5b2:TSS_RECONF_111022,BLUE,yellow,incongruent,yellow,1.0,899.0,6.0,,1668183695491.0,1668183696390.0,1668183689746.0,0.0,0.0,4.0,Fixed_1000_Accuracy,7.0,Accuracy,8000.0,2000.0,1000.0
MainBlock,5cc8cab1f67ce800171cc5b2:TSS_RECONF_111022,RED,red,congruent,red,1.0,667.0,7.0,,1668183696899.0,1668183697566.0,1668183689746.0,0.0,0.0,4.0,Fixed_1000_Accuracy,7.0,Accuracy,8000.0,2000.0,1000.0
MainBlock,5cc8cab1f67ce800171cc5b2:TSS_RECONF_111022,,,,,,,,,,,,0.0,0.0,4.0,Fixed_1000_Accuracy,7.0,Accuracy,8000.0,2000.0,1000.0
MainBlock,5cc8cab1f67ce800171cc5b2:TSS_RECONF_111022,RED,green,incongruent,green,1.0,1083.0,1.0,,1668183703763.0,1668183704846.0,1668183703762.0,0.0,0.0,4.0,Fixed_1000_Accuracy,8.0,Accuracy,7500.0,1000.0,1000.0
MainBlock,5cc8cab1f67ce800171cc5b2:TSS_RECONF_111022,YELLOW,yellow,congruent,yellow,1.0,627.0,2.0,,1668183705355.0,1668183705982.0,1668183703762.0,0.0,0.0,4.0,Fixed_1000_Accuracy,8.0,Accuracy,7500.0,1000.0,1000.0
MainBlock,5cc8cab1f67ce800171cc5b2:TSS_RECONF_111022,RED,green,incongruent,green,1.0,818.0,3.0,,1668183706491.0,1668183707309.0,1668183703762.0,0.0,0.0,4.0,Fixed_1000_Accuracy,8.0,Accuracy,7500.0,1000.0,1000.0
MainBlock,5cc8cab1f67ce800171cc5b2:TSS_RECONF_111022,YELLOW,blue,incongruent,blue,1.0,490.0,4.0,,1668183707811.0,1668183708301.0,1668183703762.0,0.0,0.0,4.0,Fixed_1000_Accuracy,8.0,Accuracy,7500.0,1000.0,1000.0
MainBlock,5cc8cab1f67ce800171cc5b2:TSS_RECONF_111022,GREEN,green,congruent,green,1.0,610.0,5.0,,1668183708803.0,1668183709413.0,1668183703762.0,0.0,0.0,4.0,Fixed_1000_Accuracy,8.0,Accuracy,7500.0,1000.0,1000.0
MainBlock,5cc8cab1f67ce800171cc5b2:TSS_RECONF_111022,YELLOW,yellow,congruent,yellow,1.0,618.0,6.0,,1668183709915.0,1668183710533.0,1668183703762.0,0.0,0.0,4.0,Fixed_1000_Accuracy,8.0,Accuracy,7500.0,1000.0,1000.0
MainBlock,5cc8cab1f67ce800171cc5b2:TSS_RECONF_111022,,,,,,,,,,,,0.0,0.0,4.0,Fixed_1000_Accuracy,8.0,Accuracy,7500.0,1000.0,1000.0
MainBlock,5cc8cab1f67ce800171cc5b2:TSS_RECONF_111022,RED,red,congruent,red,1.0,698.0,1.0,,1668183717790.0,1668183718488.0,1668183717789.0,0.0,0.0,4.0,Fixed_1000_Accuracy,9.0,Accuracy,6000.0,1500.0,1000.0
MainBlock,5cc8cab1f67ce800171cc5b2:TSS_RECONF_111022,YELLOW,green,incongruent,green,1.0,874.0,2.0,,1668183718990.0,1668183719864.0,1668183717789.0,0.0,0.0,4.0,Fixed_1000_Accuracy,9.0,Accuracy,6000.0,1500.0,1000.0
MainBlock,5cc8cab1f67ce800171cc5b2:TSS_RECONF_111022,GREEN,red,incongruent,red,1.0,761.0,3.0,,1668183720366.0,1668183721127.0,1668183717789.0,0.0,0.0,4.0,Fixed_1000_Accuracy,9.0,Accuracy,6000.0,1500.0,1000.0
MainBlock,5cc8cab1f67ce800171cc5b2:TSS_RECONF_111022,BLUE,green,incongruent,green,1.0,785.0,4.0,,1668183721630.0,1668183722415.0,1668183717789.0,0.0,0.0,4.0,Fixed_1000_Accuracy,9.0,Accuracy,6000.0,1500.0,1000.0
MainBlock,5cc8cab1f67ce800171cc5b2:TSS_RECONF_111022,YELLOW,yellow,congruent,yellow,1.0,729.0,5.0,,1668183722918.0,1668183723647.0,1668183717789.0,0.0,0.0,4.0,Fixed_1000_Accuracy,9.0,Accuracy,6000.0,1500.0,1000.0
MainBlock,5cc8cab1f67ce800171cc5b2:TSS_RECONF_111022,,,,,,,,,,,,0.0,0.0,4.0,Fixed_1000_Accuracy,9.0,Accuracy,6000.0,1500.0,1000.0
MainBlock,5cc8cab1f67ce800171cc5b2:TSS_RECONF_111022,BLUE,blue,congruent,blue,1.0,706.0,1.0,,1668183730309.0,1668183731015.0,1668183730308.0,0.0,0.0,4.0,Fixed_1000_Accuracy,10.0,Accuracy,8000.0,1500.0,1000.0
MainBlock,5cc8cab1f67ce800171cc5b2:TSS_RECONF_111022,YELLOW,green,incongruent,green,1.0,730.0,2.0,,1668183731517.0,1668183732247.0,1668183730308.0,0.0,0.0,4.0,Fixed_1000_Accuracy,10.0,Accuracy,8000.0,1500.0,1000.0
MainBlock,5cc8cab1f67ce800171cc5b2:TSS_RECONF_111022,RED,yellow,incongruent,yellow,1.0,666.0,3.0,,1668183732749.0,1668183733415.0,1668183730308.0,0.0,0.0,4.0,Fixed_1000_Accuracy,10.0,Accuracy,8000.0,1500.0,1000.0
MainBlock,5cc8cab1f67ce800171cc5b2:TSS_RECONF_111022,GREEN,green,congruent,green,1.0,594.0,4.0,,1668183733917.0,1668183734511.0,1668183730308.0,0.0,0.0,4.0,Fixed_1000_Accuracy,10.0,Accuracy,8000.0,1500.0,1000.0
MainBlock,5cc8cab1f67ce800171cc5b2:TSS_RECONF_111022,RED,red,congruent,red,1.0,642.0,5.0,,1668183735013.0,1668183735655.0,1668183730308.0,0.0,0.0,4.0,Fixed_1000_Accuracy,10.0,Accuracy,8000.0,1500.0,1000.0
MainBlock,5cc8cab1f67ce800171cc5b2:TSS_RECONF_111022,BLUE,yellow,incongruent,yellow,1.0,682.0,6.0,,1668183736157.0,1668183736839.0,1668183730308.0,0.0,0.0,4.0,Fixed_1000_Accuracy,10.0,Accuracy,8000.0,1500.0,1000.0
MainBlock,5cc8cab1f67ce800171cc5b2:TSS_RECONF_111022,RED,red,congruent,red,1.0,578.0,7.0,,1668183737341.0,1668183737919.0,1668183730308.0,0.0,0.0,4.0,Fixed_1000_Accuracy,10.0,Accuracy,8000.0,1500.0,1000.0
MainBlock,5cc8cab1f67ce800171cc5b2:TSS_RECONF_111022,,,,,,,,,,,,0.0,0.0,4.0,Fixed_1000_Accuracy,10.0,Accuracy,8000.0,1500.0,1000.0
MainBlock,5cc8cab1f67ce800171cc5b2:TSS_RECONF_111022,BLUE,green,incongruent,green,1.0,664.0,1.0,,1668183777160.0,1668183777824.0,1668183777160.0,0.0,0.0,5.0,Fixed_1000_Speed,1.0,Speed,6000.0,2000.0,1000.0
MainBlock,5cc8cab1f67ce800171cc5b2:TSS_RECONF_111022,YELLOW,yellow,congruent,yellow,1.0,528.0,2.0,,1668183778328.0,1668183778856.0,1668183777160.0,0.0,0.0,5.0,Fixed_1000_Speed,1.0,Speed,6000.0,2000.0,1000.0
MainBlock,5cc8cab1f67ce800171cc5b2:TSS_RECONF_111022,RED,green,incongruent,green,1.0,536.0,3.0,,1668183779360.0,1668183779896.0,1668183777160.0,0.0,0.0,5.0,Fixed_1000_Speed,1.0,Speed,6000.0,2000.0,1000.0
MainBlock,5cc8cab1f67ce800171cc5b2:TSS_RECONF_111022,BLUE,blue,congruent,blue,1.0,415.0,4.0,,1668183780400.0,1668183780815.0,1668183777160.0,0.0,0.0,5.0,Fixed_1000_Speed,1.0,Speed,6000.0,2000.0,1000.0
MainBlock,5cc8cab1f67ce800171cc5b2:TSS_RECONF_111022,GREEN,yellow,incongruent,yellow,1.0,551.0,5.0,,1668183781320.0,1668183781871.0,1668183777160.0,0.0,0.0,5.0,Fixed_1000_Speed,1.0,Speed,6000.0,2000.0,1000.0
MainBlock,5cc8cab1f67ce800171cc5b2:TSS_RECONF_111022,BLUE,blue,congruent,green,0.0,495.0,6.0,,1668183782376.0,1668183782871.0,1668183777160.0,0.0,0.0,5.0,Fixed_1000_Speed,1.0,Speed,6000.0,2000.0,1000.0
MainBlock,5cc8cab1f67ce800171cc5b2:TSS_RECONF_111022,,,,,,,,,,,,0.0,0.0,5.0,Fixed_1000_Speed,1.0,Speed,6000.0,2000.0,1000.0
MainBlock,5cc8cab1f67ce800171cc5b2:TSS_RECONF_111022,RED,green,incongruent,green,1.0,719.0,1.0,,1668183789680.0,1668183790399.0,1668183789680.0,0.0,0.0,5.0,Fixed_1000_Speed,2.0,Speed,7500.0,1500.0,1000.0
MainBlock,5cc8cab1f67ce800171cc5b2:TSS_RECONF_111022,YELLOW,yellow,congruent,yellow,1.0,519.0,2.0,,1668183790904.0,1668183791423.0,1668183789680.0,0.0,0.0,5.0,Fixed_1000_Speed,2.0,Speed,7500.0,1500.0,1000.0
MainBlock,5cc8cab1f67ce800171cc5b2:TSS_RECONF_111022,GREEN,blue,incongruent,blue,1.0,671.0,3.0,,1668183791928.0,1668183792599.0,1668183789680.0,0.0,0.0,5.0,Fixed_1000_Speed,2.0,Speed,7500.0,1500.0,1000.0
MainBlock,5cc8cab1f67ce800171cc5b2:TSS_RECONF_111022,YELLOW,yellow,congruent,yellow,1.0,598.0,4.0,,1668183793104.0,1668183793702.0,1668183789680.0,0.0,0.0,5.0,Fixed_1000_Speed,2.0,Speed,7500.0,1500.0,1000.0
MainBlock,5cc8cab1f67ce800171cc5b2:TSS_RECONF_111022,BLUE,blue,congruent,blue,1.0,559.0,5.0,,1668183794208.0,1668183794767.0,1668183789680.0,0.0,0.0,5.0,Fixed_1000_Speed,2.0,Speed,7500.0,1500.0,1000.0
MainBlock,5cc8cab1f67ce800171cc5b2:TSS_RECONF_111022,YELLOW,green,incongruent,green,1.0,558.0,6.0,,1668183795272.0,1668183795830.0,1668183789680.0,0.0,0.0,5.0,Fixed_1000_Speed,2.0,Speed,7500.0,1500.0,1000.0
MainBlock,5cc8cab1f67ce800171cc5b2:TSS_RECONF_111022,BLUE,yellow,incongruent,yellow,1.0,542.0,7.0,,1668183796336.0,1668183796878.0,1668183789680.0,0.0,0.0,5.0,Fixed_1000_Speed,2.0,Speed,7500.0,1500.0,1000.0
MainBlock,5cc8cab1f67ce800171cc5b2:TSS_RECONF_111022,,,,,,,,,,,,0.0,0.0,5.0,Fixed_1000_Speed,2.0,Speed,7500.0,1500.0,1000.0
MainBlock,5cc8cab1f67ce800171cc5b2:TSS_RECONF_111022,BLUE,blue,congruent,blue,1.0,607.0,1.0,,1668183804192.0,1668183804799.0,1668183804192.0,0.0,0.0,5.0,Fixed_1000_Speed,3.0,Speed,7500.0,2000.0,1000.0
MainBlock,5cc8cab1f67ce800171cc5b2:TSS_RECONF_111022,RED,yellow,incongruent,yellow,1.0,590.0,2.0,,1668183805304.0,1668183805894.0,1668183804192.0,0.0,0.0,5.0,Fixed_1000_Speed,3.0,Speed,7500.0,2000.0,1000.0
MainBlock,5cc8cab1f67ce800171cc5b2:TSS_RECONF_111022,YELLOW,blue,incongruent,blue,1.0,526.0,3.0,,1668183806400.0,1668183806926.0,1668183804192.0,0.0,0.0,5.0,Fixed_1000_Speed,3.0,Speed,7500.0,2000.0,1000.0
MainBlock,5cc8cab1f67ce800171cc5b2:TSS_RECONF_111022,RED,red,congruent,red,1.0,510.0,4.0,,1668183807432.0,1668183807942.0,1668183804192.0,0.0,0.0,5.0,Fixed_1000_Speed,3.0,Speed,7500.0,2000.0,1000.0
MainBlock,5cc8cab1f67ce800171cc5b2:TSS_RECONF_111022,BLUE,yellow,incongruent,yellow,1.0,670.0,5.0,,1668183808448.0,1668183809118.0,1668183804192.0,0.0,0.0,5.0,Fixed_1000_Speed,3.0,Speed,7500.0,2000.0,1000.0
MainBlock,5cc8cab1f67ce800171cc5b2:TSS_RECONF_111022,YELLOW,green,incongruent,green,1.0,646.0,6.0,,1668183809624.0,1668183810270.0,1668183804192.0,0.0,0.0,5.0,Fixed_1000_Speed,3.0,Speed,7500.0,2000.0,1000.0
MainBlock,5cc8cab1f67ce800171cc5b2:TSS_RECONF_111022,GREEN,red,incongruent,red,1.0,534.0,7.0,,1668183810776.0,1668183811310.0,1668183804192.0,0.0,0.0,5.0,Fixed_1000_Speed,3.0,Speed,7500.0,2000.0,1000.0
MainBlock,5cc8cab1f67ce800171cc5b2:TSS_RECONF_111022,,,,,,,,,,,,0.0,0.0,5.0,Fixed_1000_Speed,3.0,Speed,7500.0,2000.0,1000.0
MainBlock,5cc8cab1f67ce800171cc5b2:TSS_RECONF_111022,RED,red,congruent,red,1.0,558.0,1.0,,1668183817712.0,1668183818270.0,1668183817712.0,0.0,0.0,5.0,Fixed_1000_Speed,4.0,Speed,6000.0,1000.0,1000.0
MainBlock,5cc8cab1f67ce800171cc5b2:TSS_RECONF_111022,YELLOW,green,incongruent,green,1.0,493.0,2.0,,1668183818776.0,1668183819269.0,1668183817712.0,0.0,0.0,5.0,Fixed_1000_Speed,4.0,Speed,6000.0,1000.0,1000.0
MainBlock,5cc8cab1f67ce800171cc5b2:TSS_RECONF_111022,GREEN,yellow,incongruent,yellow,1.0,493.0,3.0,,1668183819776.0,1668183820269.0,1668183817712.0,0.0,0.0,5.0,Fixed_1000_Speed,4.0,Speed,6000.0,1000.0,1000.0
MainBlock,5cc8cab1f67ce800171cc5b2:TSS_RECONF_111022,YELLOW,green,incongruent,blue,0.0,557.0,4.0,,1668183820776.0,1668183821333.0,1668183817712.0,0.0,0.0,5.0,Fixed_1000_Speed,4.0,Speed,6000.0,1000.0,1000.0
MainBlock,5cc8cab1f67ce800171cc5b2:TSS_RECONF_111022,BLUE,blue,congruent,blue,1.0,381.0,5.0,,1668183821840.0,1668183822221.0,1668183817712.0,0.0,0.0,5.0,Fixed_1000_Speed,4.0,Speed,6000.0,1000.0,1000.0
MainBlock,5cc8cab1f67ce800171cc5b2:TSS_RECONF_111022,RED,red,congruent,red,1.0,589.0,6.0,,1668183822728.0,1668183823317.0,1668183817712.0,0.0,0.0,5.0,Fixed_1000_Speed,4.0,Speed,6000.0,1000.0,1000.0
MainBlock,5cc8cab1f67ce800171cc5b2:TSS_RECONF_111022,,,,,,,,,,,,0.0,0.0,5.0,Fixed_1000_Speed,4.0,Speed,6000.0,1000.0,1000.0
MainBlock,5cc8cab1f67ce800171cc5b2:TSS_RECONF_111022,RED,yellow,incongruent,yellow,1.0,645.0,1.0,,1668183830728.0,1668183831373.0,1668183830728.0,0.0,0.0,5.0,Fixed_1000_Speed,5.0,Speed,7000.0,2000.0,1000.0
MainBlock,5cc8cab1f67ce800171cc5b2:TSS_RECONF_111022,GREEN,green,congruent,green,1.0,493.0,2.0,,1668183831880.0,1668183832373.0,1668183830728.0,0.0,0.0,5.0,Fixed_1000_Speed,5.0,Speed,7000.0,2000.0,1000.0
MainBlock,5cc8cab1f67ce800171cc5b2:TSS_RECONF_111022,BLUE,yellow,incongruent,yellow,1.0,573.0,3.0,,1668183832880.0,1668183833453.0,1668183830728.0,0.0,0.0,5.0,Fixed_1000_Speed,5.0,Speed,7000.0,2000.0,1000.0
MainBlock,5cc8cab1f67ce800171cc5b2:TSS_RECONF_111022,YELLOW,red,incongruent,red,1.0,396.0,4.0,,1668183833960.0,1668183834356.0,1668183830728.0,0.0,0.0,5.0,Fixed_1000_Speed,5.0,Speed,7000.0,2000.0,1000.0
MainBlock,5cc8cab1f67ce800171cc5b2:TSS_RECONF_111022,BLUE,blue,congruent,blue,1.0,712.0,5.0,,1668183834864.0,1668183835576.0,1668183830728.0,0.0,0.0,5.0,Fixed_1000_Speed,5.0,Speed,7000.0,2000.0,1000.0
MainBlock,5cc8cab1f67ce800171cc5b2:TSS_RECONF_111022,RED,green,incongruent,green,1.0,620.0,6.0,,1668183836083.0,1668183836703.0,1668183830728.0,0.0,0.0,5.0,Fixed_1000_Speed,5.0,Speed,7000.0,2000.0,1000.0
MainBlock,5cc8cab1f67ce800171cc5b2:TSS_RECONF_111022,,,,,,,,,,,,0.0,0.0,5.0,Fixed_1000_Speed,5.0,Speed,7000.0,2000.0,1000.0
MainBlock,5cc8cab1f67ce800171cc5b2:TSS_RECONF_111022,YELLOW,yellow,congruent,yellow,1.0,604.0,1.0,,1668183843747.0,1668183844351.0,1668183843747.0,0.0,0.0,5.0,Fixed_1000_Speed,6.0,Speed,6500.0,1000.0,1000.0
MainBlock,5cc8cab1f67ce800171cc5b2:TSS_RECONF_111022,BLUE,red,incongruent,red,1.0,396.0,2.0,,1668183844859.0,1668183845255.0,1668183843747.0,0.0,0.0,5.0,Fixed_1000_Speed,6.0,Speed,6500.0,1000.0,1000.0
MainBlock,5cc8cab1f67ce800171cc5b2:TSS_RECONF_111022,GREEN,blue,incongruent,blue,1.0,652.0,3.0,,1668183845763.0,1668183846415.0,1668183843747.0,0.0,0.0,5.0,Fixed_1000_Speed,6.0,Speed,6500.0,1000.0,1000.0
MainBlock,5cc8cab1f67ce800171cc5b2:TSS_RECONF_111022,RED,red,congruent,red,1.0,508.0,4.0,,1668183846923.0,1668183847431.0,1668183843747.0,0.0,0.0,5.0,Fixed_1000_Speed,6.0,Speed,6500.0,1000.0,1000.0
MainBlock,5cc8cab1f67ce800171cc5b2:TSS_RECONF_111022,BLUE,yellow,incongruent,yellow,1.0,396.0,5.0,,1668183847939.0,1668183848335.0,1668183843747.0,0.0,0.0,5.0,Fixed_1000_Speed,6.0,Speed,6500.0,1000.0,1000.0
MainBlock,5cc8cab1f67ce800171cc5b2:TSS_RECONF_111022,GREEN,red,incongruent,red,1.0,924.0,6.0,,1668183848843.0,1668183849767.0,1668183843747.0,0.0,0.0,5.0,Fixed_1000_Speed,6.0,Speed,6500.0,1000.0,1000.0
MainBlock,5cc8cab1f67ce800171cc5b2:TSS_RECONF_111022,,,,,,,,,,,,0.0,0.0,5.0,Fixed_1000_Speed,6.0,Speed,6500.0,1000.0,1000.0
MainBlock,5cc8cab1f67ce800171cc5b2:TSS_RECONF_111022,RED,green,incongruent,green,1.0,659.0,1.0,,1668183856268.0,1668183856927.0,1668183856267.0,0.0,0.0,5.0,Fixed_1000_Speed,7.0,Speed,8000.0,1000.0,1000.0
MainBlock,5cc8cab1f67ce800171cc5b2:TSS_RECONF_111022,BLUE,blue,congruent,blue,1.0,395.0,2.0,,1668183857435.0,1668183857830.0,1668183856267.0,0.0,0.0,5.0,Fixed_1000_Speed,7.0,Speed,8000.0,1000.0,1000.0
MainBlock,5cc8cab1f67ce800171cc5b2:TSS_RECONF_111022,RED,green,incongruent,green,1.0,643.0,3.0,,1668183858339.0,1668183858982.0,1668183856267.0,0.0,0.0,5.0,Fixed_1000_Speed,7.0,Speed,8000.0,1000.0,1000.0
