phase,uniqueid,distractor,target,type,response,hit,rt,trialNum,initrt,stimOn,stimOff,startTime,moneyEarned,sessionNum,blockNum,blockType,intervalNum,intervalType,intervalLength
MainBlock,5b060d9e68eff50001d1a2c1:TSS_DDL_092921,RED,green,incongruent,green,1.0,1105.0,1.0,,1639176410652.0,1639176411757.0,1639176410651.0,0.0,0.0,1.0,Mixed,1.0,Speed,11000.0
MainBlock,5b060d9e68eff50001d1a2c1:TSS_DDL_092921,YELLOW,yellow,congruent,yellow,1.0,558.0,2.0,,1639176412271.0,1639176412829.0,1639176410651.0,0.0,0.0,1.0,Mixed,1.0,Speed,11000.0
MainBlock,5b060d9e68eff50001d1a2c1:TSS_DDL_092921,BLUE,red,incongruent,red,1.0,757.0,3.0,,1639176413344.0,1639176414101.0,1639176410651.0,0.0,0.0,1.0,Mixed,1.0,Speed,11000.0
MainBlock,5b060d9e68eff50001d1a2c1:TSS_DDL_092921,RED,yellow,incongruent,yellow,1.0,533.0,4.0,,1639176414616.0,1639176415149.0,1639176410651.0,0.0,0.0,1.0,Mixed,1.0,Speed,11000.0
MainBlock,5b060d9e68eff50001d1a2c1:TSS_DDL_092921,GREEN,green,congruent,green,1.0,487.0,5.0,,1639176415662.0,1639176416149.0,1639176410651.0,0.0,0.0,1.0,Mixed,1.0,Speed,11000.0
MainBlock,5b060d9e68eff50001d1a2c1:TSS_DDL_092921,BLUE,red,incongruent,red,1.0,616.0,6.0,,1639176416662.0,1639176417278.0,1639176410651.0,0.0,0.0,1.0,Mixed,1.0,Speed,11000.0
MainBlock,5b060d9e68eff50001d1a2c1:TSS_DDL_092921,GREEN,yellow,incongruent,yellow,1.0,539.0,7.0,,1639176417779.0,1639176418318.0,1639176410651.0,0.0,0.0,1.0,Mixed,1.0,Speed,11000.0
MainBlock,5b060d9e68eff50001d1a2c1:TSS_DDL_092921,RED,red,congruent,red,1.0,587.0,8.0,,1639176418827.0,1639176419414.0,1639176410651.0,0.0,0.0,1.0,Mixed,1.0,Speed,11000.0
MainBlock,5b060d9e68eff50001d1a2c1:TSS_DDL_092921,BLUE,blue,congruent,blue,1.0,544.0,9.0,,1639176419917.0,1639176420461.0,1639176410651.0,0.0,0.0,1.0,Mixed,1.0,Speed,11000.0
MainBlock,5b060d9e68eff50001d1a2c1:TSS_DDL_092921,GREEN,yellow,incongruent,yellow,1.0,575.0,10.0,,1639176420975.0,1639176421550.0,1639176410651.0,0.0,0.0,1.0,Mixed,1.0,Speed,11000.0
MainBlock,5b060d9e68eff50001d1a2c1:TSS_DDL_092921,,,,,,,,,,,,0.0,0.0,1.0,Mixed,1.0,Speed,11000.0
MainBlock,5b060d9e68eff50001d1a2c1:TSS_DDL_092921,GREEN,green,congruent,green,1.0,1094.0,1.0,,1639176427681.0,1639176428775.0,1639176427681.0,0.0,0.0,1.0,Mixed,2.0,Speed_Accuracy,8000.0
MainBlock,5b060d9e68eff50001d1a2c1:TSS_DDL_092921,BLUE,red,incongruent,red,1.0,583.0,2.0,,1639176429287.0,1639176429870.0,1639176427681.0,0.0,0.0,1.0,Mixed,2.0,Speed_Accuracy,8000.0
MainBlock,5b060d9e68eff50001d1a2c1:TSS_DDL_092921,YELLOW,green,incongruent,green,1.0,589.0,3.0,,1639176430378.0,1639176430967.0,1639176427681.0,0.0,0.0,1.0,Mixed,2.0,Speed_Accuracy,8000.0
MainBlock,5b060d9e68eff50001d1a2c1:TSS_DDL_092921,BLUE,blue,congruent,blue,1.0,524.0,4.0,,1639176431483.0,1639176432007.0,1639176427681.0,0.0,0.0,1.0,Mixed,2.0,Speed_Accuracy,8000.0
MainBlock,5b060d9e68eff50001d1a2c1:TSS_DDL_092921,RED,green,incongruent,green,1.0,880.0,5.0,,1639176432511.0,1639176433391.0,1639176427681.0,0.0,0.0,1.0,Mixed,2.0,Speed_Accuracy,8000.0
MainBlock,5b060d9e68eff50001d1a2c1:TSS_DDL_092921,GREEN,blue,incongruent,blue,1.0,527.0,6.0,,1639176433896.0,1639176434423.0,1639176427681.0,0.0,0.0,1.0,Mixed,2.0,Speed_Accuracy,8000.0
MainBlock,5b060d9e68eff50001d1a2c1:TSS_DDL_092921,RED,red,congruent,red,1.0,497.0,7.0,,1639176434926.0,1639176435423.0,1639176427681.0,0.0,0.0,1.0,Mixed,2.0,Speed_Accuracy,8000.0
MainBlock,5b060d9e68eff50001d1a2c1:TSS_DDL_092921,,,,,,,,,,,,0.0,0.0,1.0,Mixed,2.0,Speed_Accuracy,8000.0
MainBlock,5b060d9e68eff50001d1a2c1:TSS_DDL_092921,RED,yellow,incongruent,green,0.0,761.0,1.0,,1639176440712.0,1639176441473.0,1639176440712.0,0.0,0.0,1.0,Mixed,3.0,Speed_Accuracy,8000.0
MainBlock,5b060d9e68eff50001d1a2c1:TSS_DDL_092921,GREEN,green,congruent,green,1.0,569.0,2.0,,1639176441975.0,1639176442544.0,1639176440712.0,0.0,0.0,1.0,Mixed,3.0,Speed_Accuracy,8000.0
MainBlock,5b060d9e68eff50001d1a2c1:TSS_DDL_092921,BLUE,blue,congruent,blue,1.0,394.0,3.0,,1639176443046.0,1639176443440.0,1639176440712.0,0.0,0.0,1.0,Mixed,3.0,Speed_Accuracy,8000.0
MainBlock,5b060d9e68eff50001d1a2c1:TSS_DDL_092921,GREEN,red,incongruent,red,1.0,516.0,4.0,,1639176443948.0,1639176444464.0,1639176440712.0,0.0,0.0,1.0,Mixed,3.0,Speed_Accuracy,8000.0
MainBlock,5b060d9e68eff50001d1a2c1:TSS_DDL_092921,BLUE,yellow,incongruent,yellow,1.0,416.0,5.0,,1639176444976.0,1639176445392.0,1639176440712.0,0.0,0.0,1.0,Mixed,3.0,Speed_Accuracy,8000.0
MainBlock,5b060d9e68eff50001d1a2c1:TSS_DDL_092921,RED,blue,incongruent,blue,1.0,623.0,6.0,,1639176445905.0,1639176446528.0,1639176440712.0,0.0,0.0,1.0,Mixed,3.0,Speed_Accuracy,8000.0
MainBlock,5b060d9e68eff50001d1a2c1:TSS_DDL_092921,GREEN,green,congruent,green,1.0,497.0,7.0,,1639176447032.0,1639176447529.0,1639176440712.0,0.0,0.0,1.0,Mixed,3.0,Speed_Accuracy,8000.0
MainBlock,5b060d9e68eff50001d1a2c1:TSS_DDL_092921,YELLOW,yellow,congruent,yellow,1.0,457.0,8.0,,1639176448031.0,1639176448488.0,1639176440712.0,0.0,0.0,1.0,Mixed,3.0,Speed_Accuracy,8000.0
MainBlock,5b060d9e68eff50001d1a2c1:TSS_DDL_092921,,,,,,,,,,,,0.0,0.0,1.0,Mixed,3.0,Speed_Accuracy,8000.0
MainBlock,5b060d9e68eff50001d1a2c1:TSS_DDL_092921,GREEN,green,congruent,green,1.0,707.0,1.0,,1639176454247.0,1639176454954.0,1639176454246.0,0.0,0.0,1.0,Mixed,4.0,Accuracy,8000.0
MainBlock,5b060d9e68eff50001d1a2c1:TSS_DDL_092921,BLUE,yellow,incongruent,yellow,1.0,460.0,2.0,,1639176455461.0,1639176455921.0,1639176454246.0,0.0,0.0,1.0,Mixed,4.0,Accuracy,8000.0
MainBlock,5b060d9e68eff50001d1a2c1:TSS_DDL_092921,GREEN,blue,incongruent,blue,1.0,623.0,3.0,,1639176456426.0,1639176457049.0,1639176454246.0,0.0,0.0,1.0,Mixed,4.0,Accuracy,8000.0
MainBlock,5b060d9e68eff50001d1a2c1:TSS_DDL_092921,YELLOW,red,incongruent,red,1.0,442.0,4.0,,1639176457559.0,1639176458001.0,1639176454246.0,0.0,0.0,1.0,Mixed,4.0,Accuracy,8000.0
MainBlock,5b060d9e68eff50001d1a2c1:TSS_DDL_092921,BLUE,blue,congruent,blue,1.0,862.0,5.0,,1639176458507.0,1639176459369.0,1639176454246.0,0.0,0.0,1.0,Mixed,4.0,Accuracy,8000.0
MainBlock,5b060d9e68eff50001d1a2c1:TSS_DDL_092921,RED,yellow,incongruent,yellow,1.0,518.0,6.0,,1639176459876.0,1639176460394.0,1639176454246.0,0.0,0.0,1.0,Mixed,4.0,Accuracy,8000.0
MainBlock,5b060d9e68eff50001d1a2c1:TSS_DDL_092921,GREEN,green,congruent,green,1.0,488.0,7.0,,1639176460906.0,1639176461394.0,1639176454246.0,0.0,0.0,1.0,Mixed,4.0,Accuracy,8000.0
MainBlock,5b060d9e68eff50001d1a2c1:TSS_DDL_092921,,,,,,,,,,,,0.0,0.0,1.0,Mixed,4.0,Accuracy,8000.0
MainBlock,5b060d9e68eff50001d1a2c1:TSS_DDL_092921,GREEN,blue,incongruent,blue,1.0,749.0,1.0,,1639176468271.0,1639176469020.0,1639176468271.0,0.0,0.0,1.0,Mixed,5.0,Speed_Accuracy,10000.0
MainBlock,5b060d9e68eff50001d1a2c1:TSS_DDL_092921,YELLOW,yellow,congruent,yellow,1.0,522.0,2.0,,1639176469529.0,1639176470051.0,1639176468271.0,0.0,0.0,1.0,Mixed,5.0,Speed_Accuracy,10000.0
MainBlock,5b060d9e68eff50001d1a2c1:TSS_DDL_092921,RED,red,congruent,red,1.0,471.0,3.0,,1639176470564.0,1639176471035.0,1639176468271.0,0.0,0.0,1.0,Mixed,5.0,Speed_Accuracy,10000.0
MainBlock,5b060d9e68eff50001d1a2c1:TSS_DDL_092921,YELLOW,blue,incongruent,blue,1.0,928.0,4.0,,1639176471547.0,1639176472475.0,1639176468271.0,0.0,0.0,1.0,Mixed,5.0,Speed_Accuracy,10000.0
MainBlock,5b060d9e68eff50001d1a2c1:TSS_DDL_092921,BLUE,red,incongruent,red,1.0,683.0,5.0,,1639176472985.0,1639176473668.0,1639176468271.0,0.0,0.0,1.0,Mixed,5.0,Speed_Accuracy,10000.0
MainBlock,5b060d9e68eff50001d1a2c1:TSS_DDL_092921,GREEN,green,congruent,green,1.0,631.0,6.0,,1639176474172.0,1639176474803.0,1639176468271.0,0.0,0.0,1.0,Mixed,5.0,Speed_Accuracy,10000.0
MainBlock,5b060d9e68eff50001d1a2c1:TSS_DDL_092921,RED,yellow,incongruent,yellow,1.0,1201.0,7.0,,1639176475307.0,1639176476508.0,1639176468271.0,0.0,0.0,1.0,Mixed,5.0,Speed_Accuracy,10000.0
MainBlock,5b060d9e68eff50001d1a2c1:TSS_DDL_092921,BLUE,blue,congruent,blue,1.0,529.0,8.0,,1639176477018.0,1639176477547.0,1639176468271.0,0.0,0.0,1.0,Mixed,5.0,Speed_Accuracy,10000.0
MainBlock,5b060d9e68eff50001d1a2c1:TSS_DDL_092921,,,,,,,,,,,,0.0,0.0,1.0,Mixed,5.0,Speed_Accuracy,10000.0
MainBlock,5b060d9e68eff50001d1a2c1:TSS_DDL_092921,GREEN,yellow,incongruent,yellow,1.0,918.0,1.0,,1639176483815.0,1639176484733.0,1639176483814.0,0.0,0.0,1.0,Mixed,6.0,Accuracy,8000.0
MainBlock,5b060d9e68eff50001d1a2c1:TSS_DDL_092921,BLUE,blue,congruent,blue,1.0,596.0,2.0,,1639176485240.0,1639176485836.0,1639176483814.0,0.0,0.0,1.0,Mixed,6.0,Accuracy,8000.0
MainBlock,5b060d9e68eff50001d1a2c1:TSS_DDL_092921,YELLOW,red,incongruent,red,1.0,661.0,3.0,,1639176486343.0,1639176487004.0,1639176483814.0,0.0,0.0,1.0,Mixed,6.0,Accuracy,8000.0
MainBlock,5b060d9e68eff50001d1a2c1:TSS_DDL_092921,GREEN,yellow,incongruent,yellow,1.0,597.0,4.0,,1639176487511.0,1639176488108.0,1639176483814.0,0.0,0.0,1.0,Mixed,6.0,Accuracy,8000.0
MainBlock,5b060d9e68eff50001d1a2c1:TSS_DDL_092921,BLUE,blue,congruent,blue,1.0,583.0,5.0,,1639176488614.0,1639176489197.0,1639176483814.0,0.0,0.0,1.0,Mixed,6.0,Accuracy,8000.0
MainBlock,5b060d9e68eff50001d1a2c1:TSS_DDL_092921,RED,red,congruent,red,1.0,450.0,6.0,,1639176489707.0,1639176490157.0,1639176483814.0,0.0,0.0,1.0,Mixed,6.0,Accuracy,8000.0
MainBlock,5b060d9e68eff50001d1a2c1:TSS_DDL_092921,GREEN,blue,incongruent,blue,1.0,814.0,7.0,,1639176490671.0,1639176491485.0,1639176483814.0,0.0,0.0,1.0,Mixed,6.0,Accuracy,8000.0
MainBlock,5b060d9e68eff50001d1a2c1:TSS_DDL_092921,,,,,,,,,,,,0.0,0.0,1.0,Mixed,6.0,Accuracy,8000.0
MainBlock,5b060d9e68eff50001d1a2c1:TSS_DDL_092921,RED,yellow,incongruent,yellow,1.0,694.0,1.0,,1639176497329.0,1639176498023.0,1639176497328.0,0.0,0.0,1.0,Mixed,7.0,Speed,8000.0
MainBlock,5b060d9e68eff50001d1a2c1:TSS_DDL_092921,GREEN,green,congruent,green,1.0,541.0,2.0,,1639176498529.0,1639176499070.0,1639176497328.0,0.0,0.0,1.0,Mixed,7.0,Speed,8000.0
MainBlock,5b060d9e68eff50001d1a2c1:TSS_DDL_092921,BLUE,blue,congruent,blue,1.0,508.0,3.0,,1639176499586.0,1639176500094.0,1639176497328.0,0.0,0.0,1.0,Mixed,7.0,Speed,8000.0
MainBlock,5b060d9e68eff50001d1a2c1:TSS_DDL_092921,YELLOW,red,incongruent,red,1.0,393.0,4.0,,1639176500597.0,1639176500990.0,1639176497328.0,0.0,0.0,1.0,Mixed,7.0,Speed,8000.0
MainBlock,5b060d9e68eff50001d1a2c1:TSS_DDL_092921,BLUE,blue,congruent,blue,1.0,567.0,5.0,,1639176501503.0,1639176502070.0,1639176497328.0,0.0,0.0,1.0,Mixed,7.0,Speed,8000.0
MainBlock,5b060d9e68eff50001d1a2c1:TSS_DDL_092921,YELLOW,red,incongruent,red,1.0,413.0,6.0,,1639176502577.0,1639176502990.0,1639176497328.0,0.0,0.0,1.0,Mixed,7.0,Speed,8000.0
MainBlock,5b060d9e68eff50001d1a2c1:TSS_DDL_092921,RED,yellow,incongruent,yellow,1.0,480.0,7.0,,1639176503494.0,1639176503974.0,1639176497328.0,0.0,0.0,1.0,Mixed,7.0,Speed,8000.0
MainBlock,5b060d9e68eff50001d1a2c1:TSS_DDL_092921,BLUE,red,incongruent,red,1.0,481.0,8.0,,1639176504477.0,1639176504958.0,1639176497328.0,0.0,0.0,1.0,Mixed,7.0,Speed,8000.0
MainBlock,5b060d9e68eff50001d1a2c1:TSS_DDL_092921,,,,,,,,,,,,0.0,0.0,1.0,Mixed,7.0,Speed,8000.0
MainBlock,5b060d9e68eff50001d1a2c1:TSS_DDL_092921,YELLOW,yellow,congruent,yellow,1.0,600.0,1.0,,1639176510856.0,1639176511456.0,1639176510855.0,0.0,0.0,1.0,Mixed,8.0,Speed,12000.0
MainBlock,5b060d9e68eff50001d1a2c1:TSS_DDL_092921,GREEN,blue,incongruent,blue,1.0,544.0,2.0,,1639176511967.0,1639176512511.0,1639176510855.0,0.0,0.0,1.0,Mixed,8.0,Speed,12000.0
MainBlock,5b060d9e68eff50001d1a2c1:TSS_DDL_092921,YELLOW,yellow,congruent,yellow,1.0,523.0,3.0,,1639176513012.0,1639176513535.0,1639176510855.0,0.0,0.0,1.0,Mixed,8.0,Speed,12000.0
MainBlock,5b060d9e68eff50001d1a2c1:TSS_DDL_092921,BLUE,red,incongruent,red,1.0,655.0,4.0,,1639176514040.0,1639176514695.0,1639176510855.0,0.0,0.0,1.0,Mixed,8.0,Speed,12000.0
MainBlock,5b060d9e68eff50001d1a2c1:TSS_DDL_092921,RED,yellow,incongruent,yellow,1.0,420.0,5.0,,1639176515203.0,1639176515623.0,1639176510855.0,0.0,0.0,1.0,Mixed,8.0,Speed,12000.0
MainBlock,5b060d9e68eff50001d1a2c1:TSS_DDL_092921,GREEN,blue,incongruent,red,0.0,551.0,6.0,,1639176516138.0,1639176516689.0,1639176510855.0,0.0,0.0,1.0,Mixed,8.0,Speed,12000.0
MainBlock,5b060d9e68eff50001d1a2c1:TSS_DDL_092921,RED,yellow,incongruent,yellow,1.0,496.0,7.0,,1639176517199.0,1639176517695.0,1639176510855.0,0.0,0.0,1.0,Mixed,8.0,Speed,12000.0
MainBlock,5b060d9e68eff50001d1a2c1:TSS_DDL_092921,GREEN,green,congruent,green,1.0,568.0,8.0,,1639176518200.0,1639176518768.0,1639176510855.0,0.0,0.0,1.0,Mixed,8.0,Speed,12000.0
MainBlock,5b060d9e68eff50001d1a2c1:TSS_DDL_092921,YELLOW,red,incongruent,red,1.0,501.0,9.0,,1639176519283.0,1639176519784.0,1639176510855.0,0.0,0.0,1.0,Mixed,8.0,Speed,12000.0
MainBlock,5b060d9e68eff50001d1a2c1:TSS_DDL_092921,RED,yellow,incongruent,yellow,1.0,587.0,10.0,,1639176520293.0,1639176520880.0,1639176510855.0,0.0,0.0,1.0,Mixed,8.0,Speed,12000.0
MainBlock,5b060d9e68eff50001d1a2c1:TSS_DDL_092921,BLUE,blue,congruent,blue,1.0,1081.0,11.0,,1639176521384.0,1639176522465.0,1639176510855.0,0.0,0.0,1.0,Mixed,8.0,Speed,12000.0
MainBlock,5b060d9e68eff50001d1a2c1:TSS_DDL_092921,,,,,,,,,,,,0.0,0.0,1.0,Mixed,8.0,Speed,12000.0
MainBlock,5b060d9e68eff50001d1a2c1:TSS_DDL_092921,RED,green,incongruent,green,1.0,664.0,1.0,,1639176527897.0,1639176528561.0,1639176527897.0,0.0,0.0,1.0,Mixed,9.0,Accuracy,9000.0
MainBlock,5b060d9e68eff50001d1a2c1:TSS_DDL_092921,YELLOW,yellow,congruent,yellow,1.0,498.0,2.0,,1639176529071.0,1639176529569.0,1639176527897.0,0.0,0.0,1.0,Mixed,9.0,Accuracy,9000.0
MainBlock,5b060d9e68eff50001d1a2c1:TSS_DDL_092921,GREEN,green,congruent,green,1.0,479.0,3.0,,1639176530082.0,1639176530561.0,1639176527897.0,0.0,0.0,1.0,Mixed,9.0,Accuracy,9000.0
MainBlock,5b060d9e68eff50001d1a2c1:TSS_DDL_092921,RED,yellow,incongruent,yellow,1.0,383.0,4.0,,1639176531074.0,1639176531457.0,1639176527897.0,0.0,0.0,1.0,Mixed,9.0,Accuracy,9000.0
MainBlock,5b060d9e68eff50001d1a2c1:TSS_DDL_092921,BLUE,blue,congruent,blue,1.0,463.0,5.0,,1639176531962.0,1639176532425.0,1639176527897.0,0.0,0.0,1.0,Mixed,9.0,Accuracy,9000.0
MainBlock,5b060d9e68eff50001d1a2c1:TSS_DDL_092921,GREEN,yellow,incongruent,yellow,1.0,465.0,6.0,,1639176532929.0,1639176533394.0,1639176527897.0,0.0,0.0,1.0,Mixed,9.0,Accuracy,9000.0
MainBlock,5b060d9e68eff50001d1a2c1:TSS_DDL_092921,BLUE,blue,congruent,blue,1.0,403.0,7.0,,1639176533910.0,1639176534313.0,1639176527897.0,0.0,0.0,1.0,Mixed,9.0,Accuracy,9000.0
MainBlock,5b060d9e68eff50001d1a2c1:TSS_DDL_092921,GREEN,red,incongruent,red,1.0,326.0,8.0,,1639176534828.0,1639176535154.0,1639176527897.0,0.0,0.0,1.0,Mixed,9.0,Accuracy,9000.0
MainBlock,5b060d9e68eff50001d1a2c1:TSS_DDL_092921,BLUE,blue,congruent,red,0.0,386.0,9.0,,1639176535656.0,1639176536042.0,1639176527897.0,0.0,0.0,1.0,Mixed,9.0,Accuracy,9000.0
MainBlock,5b060d9e68eff50001d1a2c1:TSS_DDL_092921,,,,,,,,,,,,0.0,0.0,1.0,Mixed,9.0,Accuracy,9000.0
MainBlock,5b060d9e68eff50001d1a2c1:TSS_DDL_092921,BLUE,green,incongruent,green,1.0,805.0,1.0,,1639176541933.0,1639176542738.0,1639176541933.0,0.0,0.0,1.0,Mixed,10.0,Speed_Accuracy,11000.0
MainBlock,5b060d9e68eff50001d1a2c1:TSS_DDL_092921,YELLOW,yellow,congruent,yellow,1.0,521.0,2.0,,1639176543242.0,1639176543763.0,1639176541933.0,0.0,0.0,1.0,Mixed,10.0,Speed_Accuracy,11000.0
MainBlock,5b060d9e68eff50001d1a2c1:TSS_DDL_092921,GREEN,green,congruent,green,1.0,377.0,3.0,,1639176544273.0,1639176544650.0,1639176541933.0,0.0,0.0,1.0,Mixed,10.0,Speed_Accuracy,11000.0
MainBlock,5b060d9e68eff50001d1a2c1:TSS_DDL_092921,YELLOW,red,incongruent,red,1.0,478.0,4.0,,1639176545165.0,1639176545643.0,1639176541933.0,0.0,0.0,1.0,Mixed,10.0,Speed_Accuracy,11000.0
MainBlock,5b060d9e68eff50001d1a2c1:TSS_DDL_092921,GREEN,blue,incongruent,blue,1.0,560.0,5.0,,1639176546146.0,1639176546706.0,1639176541933.0,0.0,0.0,1.0,Mixed,10.0,Speed_Accuracy,11000.0
MainBlock,5b060d9e68eff50001d1a2c1:TSS_DDL_092921,YELLOW,yellow,congruent,yellow,1.0,612.0,6.0,,1639176547215.0,1639176547827.0,1639176541933.0,0.0,0.0,1.0,Mixed,10.0,Speed_Accuracy,11000.0
MainBlock,5b060d9e68eff50001d1a2c1:TSS_DDL_092921,RED,blue,incongruent,blue,1.0,506.0,7.0,,1639176548329.0,1639176548835.0,1639176541933.0,0.0,0.0,1.0,Mixed,10.0,Speed_Accuracy,11000.0
MainBlock,5b060d9e68eff50001d1a2c1:TSS_DDL_092921,BLUE,green,incongruent,green,1.0,442.0,8.0,,1639176549345.0,1639176549787.0,1639176541933.0,0.0,0.0,1.0,Mixed,10.0,Speed_Accuracy,11000.0
MainBlock,5b060d9e68eff50001d1a2c1:TSS_DDL_092921,RED,yellow,incongruent,yellow,1.0,608.0,9.0,,1639176550291.0,1639176550899.0,1639176541933.0,0.0,0.0,1.0,Mixed,10.0,Speed_Accuracy,11000.0
MainBlock,5b060d9e68eff50001d1a2c1:TSS_DDL_092921,BLUE,blue,congruent,blue,1.0,573.0,10.0,,1639176551406.0,1639176551979.0,1639176541933.0,0.0,0.0,1.0,Mixed,10.0,Speed_Accuracy,11000.0
MainBlock,5b060d9e68eff50001d1a2c1:TSS_DDL_092921,,,,,,,,,,,,0.0,0.0,1.0,Mixed,10.0,Speed_Accuracy,11000.0
MainBlock,5b060d9e68eff50001d1a2c1:TSS_DDL_092921,GREEN,green,congruent,green,1.0,555.0,1.0,,1639176557962.0,1639176558517.0,1639176557962.0,0.0,0.0,1.0,Mixed,11.0,Accuracy,12000.0
MainBlock,5b060d9e68eff50001d1a2c1:TSS_DDL_092921,YELLOW,blue,incongruent,red,0.0,574.0,2.0,,1639176559022.0,1639176559596.0,1639176557962.0,0.0,0.0,1.0,Mixed,11.0,Accuracy,12000.0
MainBlock,5b060d9e68eff50001d1a2c1:TSS_DDL_092921,GREEN,green,congruent,green,1.0,495.0,3.0,,1639176560101.0,1639176560596.0,1639176557962.0,0.0,0.0,1.0,Mixed,11.0,Accuracy,12000.0
MainBlock,5b060d9e68eff50001d1a2c1:TSS_DDL_092921,BLUE,red,incongruent,yellow,0.0,444.0,4.0,,1639176561112.0,1639176561556.0,1639176557962.0,0.0,0.0,1.0,Mixed,11.0,Accuracy,12000.0
MainBlock,5b060d9e68eff50001d1a2c1:TSS_DDL_092921,GREEN,yellow,incongruent,yellow,1.0,1134.0,5.0,,1639176562063.0,1639176563197.0,1639176557962.0,0.0,0.0,1.0,Mixed,11.0,Accuracy,12000.0
MainBlock,5b060d9e68eff50001d1a2c1:TSS_DDL_092921,RED,red,congruent,red,1.0,625.0,6.0,,1639176563707.0,1639176564332.0,1639176557962.0,0.0,0.0,1.0,Mixed,11.0,Accuracy,12000.0
MainBlock,5b060d9e68eff50001d1a2c1:TSS_DDL_092921,BLUE,blue,congruent,blue,1.0,656.0,7.0,,1639176564845.0,1639176565501.0,1639176557962.0,0.0,0.0,1.0,Mixed,11.0,Accuracy,12000.0
MainBlock,5b060d9e68eff50001d1a2c1:TSS_DDL_092921,RED,yellow,incongruent,yellow,1.0,657.0,8.0,,1639176566012.0,1639176566669.0,1639176557962.0,0.0,0.0,1.0,Mixed,11.0,Accuracy,12000.0
MainBlock,5b060d9e68eff50001d1a2c1:TSS_DDL_092921,YELLOW,green,incongruent,green,1.0,928.0,9.0,,1639176567181.0,1639176568109.0,1639176557962.0,0.0,0.0,1.0,Mixed,11.0,Accuracy,12000.0
MainBlock,5b060d9e68eff50001d1a2c1:TSS_DDL_092921,RED,yellow,incongruent,yellow,1.0,564.0,10.0,,1639176568618.0,1639176569182.0,1639176557962.0,0.0,0.0,1.0,Mixed,11.0,Accuracy,12000.0
MainBlock,5b060d9e68eff50001d1a2c1:TSS_DDL_092921,,,,,,,,,,,,0.0,0.0,1.0,Mixed,11.0,Accuracy,12000.0
MainBlock,5b060d9e68eff50001d1a2c1:TSS_DDL_092921,BLUE,blue,congruent,blue,1.0,643.0,1.0,,1639176575971.0,1639176576614.0,1639176575970.0,0.0,0.0,1.0,Mixed,12.0,Speed,9000.0
MainBlock,5b060d9e68eff50001d1a2c1:TSS_DDL_092921,GREEN,red,incongruent,red,1.0,628.0,2.0,,1639176577122.0,1639176577750.0,1639176575970.0,0.0,0.0,1.0,Mixed,12.0,Speed,9000.0
MainBlock,5b060d9e68eff50001d1a2c1:TSS_DDL_092921,YELLOW,yellow,congruent,yellow,1.0,657.0,3.0,,1639176578261.0,1639176578918.0,1639176575970.0,0.0,0.0,1.0,Mixed,12.0,Speed,9000.0
MainBlock,5b060d9e68eff50001d1a2c1:TSS_DDL_092921,BLUE,red,incongruent,red,1.0,614.0,4.0,,1639176579433.0,1639176580047.0,1639176575970.0,0.0,0.0,1.0,Mixed,12.0,Speed,9000.0
MainBlock,5b060d9e68eff50001d1a2c1:TSS_DDL_092921,YELLOW,green,incongruent,green,1.0,717.0,5.0,,1639176580553.0,1639176581270.0,1639176575970.0,0.0,0.0,1.0,Mixed,12.0,Speed,9000.0
MainBlock,5b060d9e68eff50001d1a2c1:TSS_DDL_092921,BLUE,blue,congruent,blue,1.0,399.0,6.0,,1639176581783.0,1639176582182.0,1639176575970.0,0.0,0.0,1.0,Mixed,12.0,Speed,9000.0
MainBlock,5b060d9e68eff50001d1a2c1:TSS_DDL_092921,GREEN,red,incongruent,red,1.0,624.0,7.0,,1639176582686.0,1639176583310.0,1639176575970.0,0.0,0.0,1.0,Mixed,12.0,Speed,9000.0
MainBlock,5b060d9e68eff50001d1a2c1:TSS_DDL_092921,BLUE,yellow,incongruent,yellow,1.0,457.0,8.0,,1639176583813.0,1639176584270.0,1639176575970.0,0.0,0.0,1.0,Mixed,12.0,Speed,9000.0
MainBlock,5b060d9e68eff50001d1a2c1:TSS_DDL_092921,,,,,,,,,,,,0.0,0.0,1.0,Mixed,12.0,Speed,9000.0
MainBlock,5b060d9e68eff50001d1a2c1:TSS_DDL_092921,RED,red,congruent,red,1.0,690.0,1.0,,1639176590510.0,1639176591200.0,1639176590509.0,0.0,0.0,1.0,Mixed,13.0,Accuracy,9000.0
MainBlock,5b060d9e68eff50001d1a2c1:TSS_DDL_092921,YELLOW,green,incongruent,green,1.0,822.0,2.0,,1639176591705.0,1639176592527.0,1639176590509.0,0.0,0.0,1.0,Mixed,13.0,Accuracy,9000.0
MainBlock,5b060d9e68eff50001d1a2c1:TSS_DDL_092921,GREEN,yellow,incongruent,yellow,1.0,461.0,3.0,,1639176593042.0,1639176593503.0,1639176590509.0,0.0,0.0,1.0,Mixed,13.0,Accuracy,9000.0
MainBlock,5b060d9e68eff50001d1a2c1:TSS_DDL_092921,YELLOW,red,incongruent,red,1.0,729.0,4.0,,1639176594014.0,1639176594743.0,1639176590509.0,0.0,0.0,1.0,Mixed,13.0,Accuracy,9000.0
MainBlock,5b060d9e68eff50001d1a2c1:TSS_DDL_092921,GREEN,green,congruent,green,1.0,783.0,5.0,,1639176595257.0,1639176596040.0,1639176590509.0,0.0,0.0,1.0,Mixed,13.0,Accuracy,9000.0
MainBlock,5b060d9e68eff50001d1a2c1:TSS_DDL_092921,RED,red,congruent,red,1.0,569.0,6.0,,1639176596551.0,1639176597120.0,1639176590509.0,0.0,0.0,1.0,Mixed,13.0,Accuracy,9000.0
MainBlock,5b060d9e68eff50001d1a2c1:TSS_DDL_092921,GREEN,green,congruent,green,1.0,488.0,7.0,,1639176597624.0,1639176598112.0,1639176590509.0,0.0,0.0,1.0,Mixed,13.0,Accuracy,9000.0
MainBlock,5b060d9e68eff50001d1a2c1:TSS_DDL_092921,BLUE,red,incongruent,red,1.0,517.0,8.0,,1639176598619.0,1639176599136.0,1639176590509.0,0.0,0.0,1.0,Mixed,13.0,Accuracy,9000.0
MainBlock,5b060d9e68eff50001d1a2c1:TSS_DDL_092921,,,,,,,,,,,,0.0,0.0,1.0,Mixed,13.0,Accuracy,9000.0
MainBlock,5b060d9e68eff50001d1a2c1:TSS_DDL_092921,RED,red,congruent,red,1.0,582.0,1.0,,1639176604532.0,1639176605114.0,1639176604532.0,0.0,0.0,1.0,Mixed,14.0,Speed,8000.0
MainBlock,5b060d9e68eff50001d1a2c1:TSS_DDL_092921,BLUE,green,incongruent,green,1.0,856.0,2.0,,1639176605625.0,1639176606481.0,1639176604532.0,0.0,0.0,1.0,Mixed,14.0,Speed,8000.0
MainBlock,5b060d9e68eff50001d1a2c1:TSS_DDL_092921,YELLOW,blue,incongruent,blue,1.0,643.0,3.0,,1639176606982.0,1639176607625.0,1639176604532.0,0.0,0.0,1.0,Mixed,14.0,Speed,8000.0
MainBlock,5b060d9e68eff50001d1a2c1:TSS_DDL_092921,GREEN,green,congruent,green,1.0,598.0,4.0,,1639176608131.0,1639176608729.0,1639176604532.0,0.0,0.0,1.0,Mixed,14.0,Speed,8000.0
MainBlock,5b060d9e68eff50001d1a2c1:TSS_DDL_092921,YELLOW,yellow,congruent,yellow,1.0,538.0,5.0,,1639176609231.0,1639176609769.0,1639176604532.0,0.0,0.0,1.0,Mixed,14.0,Speed,8000.0
MainBlock,5b060d9e68eff50001d1a2c1:TSS_DDL_092921,BLUE,red,incongruent,red,1.0,418.0,6.0,,1639176610273.0,1639176610691.0,1639176604532.0,0.0,0.0,1.0,Mixed,14.0,Speed,8000.0
MainBlock,5b060d9e68eff50001d1a2c1:TSS_DDL_092921,YELLOW,yellow,congruent,red,0.0,481.0,7.0,,1639176611192.0,1639176611673.0,1639176604532.0,0.0,0.0,1.0,Mixed,14.0,Speed,8000.0
MainBlock,5b060d9e68eff50001d1a2c1:TSS_DDL_092921,,,,,,,,,,,,0.0,0.0,1.0,Mixed,14.0,Speed,8000.0
MainBlock,5b060d9e68eff50001d1a2c1:TSS_DDL_092921,RED,blue,incongruent,blue,1.0,698.0,1.0,,1639176618561.0,1639176619259.0,1639176618561.0,0.0,0.0,1.0,Mixed,15.0,Speed_Accuracy,12000.0
MainBlock,5b060d9e68eff50001d1a2c1:TSS_DDL_092921,YELLOW,yellow,congruent,red,0.0,574.0,2.0,,1639176619764.0,1639176620338.0,1639176618561.0,0.0,0.0,1.0,Mixed,15.0,Speed_Accuracy,12000.0
MainBlock,5b060d9e68eff50001d1a2c1:TSS_DDL_092921,RED,green,incongruent,green,1.0,692.0,3.0,,1639176620846.0,1639176621538.0,1639176618561.0,0.0,0.0,1.0,Mixed,15.0,Speed_Accuracy,12000.0
MainBlock,5b060d9e68eff50001d1a2c1:TSS_DDL_092921,BLUE,yellow,incongruent,yellow,1.0,490.0,4.0,,1639176622048.0,1639176622538.0,1639176618561.0,0.0,0.0,1.0,Mixed,15.0,Speed_Accuracy,12000.0
MainBlock,5b060d9e68eff50001d1a2c1:TSS_DDL_092921,GREEN,green,congruent,green,1.0,470.0,5.0,,1639176623044.0,1639176623514.0,1639176618561.0,0.0,0.0,1.0,Mixed,15.0,Speed_Accuracy,12000.0
MainBlock,5b060d9e68eff50001d1a2c1:TSS_DDL_092921,RED,red,congruent,red,1.0,516.0,6.0,,1639176624030.0,1639176624546.0,1639176618561.0,0.0,0.0,1.0,Mixed,15.0,Speed_Accuracy,12000.0
MainBlock,5b060d9e68eff50001d1a2c1:TSS_DDL_092921,YELLOW,blue,incongruent,blue,1.0,538.0,7.0,,1639176625048.0,1639176625586.0,1639176618561.0,0.0,0.0,1.0,Mixed,15.0,Speed_Accuracy,12000.0
MainBlock,5b060d9e68eff50001d1a2c1:TSS_DDL_092921,GREEN,green,congruent,green,1.0,822.0,8.0,,1639176626092.0,1639176626914.0,1639176618561.0,0.0,0.0,1.0,Mixed,15.0,Speed_Accuracy,12000.0
MainBlock,5b060d9e68eff50001d1a2c1:TSS_DDL_092921,RED,yellow,incongruent,yellow,1.0,512.0,9.0,,1639176627427.0,1639176627939.0,1639176618561.0,0.0,0.0,1.0,Mixed,15.0,Speed_Accuracy,12000.0
MainBlock,5b060d9e68eff50001d1a2c1:TSS_DDL_092921,GREEN,green,congruent,green,1.0,459.0,10.0,,1639176628440.0,1639176628899.0,1639176618561.0,0.0,0.0,1.0,Mixed,15.0,Speed_Accuracy,12000.0
MainBlock,5b060d9e68eff50001d1a2c1:TSS_DDL_092921,RED,red,congruent,red,1.0,414.0,11.0,,1639176629406.0,1639176629820.0,1639176618561.0,0.0,0.0,1.0,Mixed,15.0,Speed_Accuracy,12000.0
MainBlock,5b060d9e68eff50001d1a2c1:TSS_DDL_092921,,,,,,,,,,,,0.0,0.0,1.0,Mixed,15.0,Speed_Accuracy,12000.0
MainBlock,5b060d9e68eff50001d1a2c1:TSS_DDL_092921,BLUE,blue,congruent,blue,1.0,633.0,1.0,,1639176635594.0,1639176636227.0,1639176635594.0,0.0,0.0,1.0,Mixed,16.0,Accuracy,10000.0
MainBlock,5b060d9e68eff50001d1a2c1:TSS_DDL_092921,YELLOW,green,incongruent,green,1.0,617.0,2.0,,1639176636739.0,1639176637356.0,1639176635594.0,0.0,0.0,1.0,Mixed,16.0,Accuracy,10000.0
MainBlock,5b060d9e68eff50001d1a2c1:TSS_DDL_092921,BLUE,blue,congruent,blue,1.0,373.0,3.0,,1639176637862.0,1639176638236.0,1639176635594.0,0.0,0.0,1.0,Mixed,16.0,Accuracy,10000.0
MainBlock,5b060d9e68eff50001d1a2c1:TSS_DDL_092921,RED,green,incongruent,green,1.0,329.0,4.0,,1639176638739.0,1639176639068.0,1639176635594.0,0.0,0.0,1.0,Mixed,16.0,Accuracy,10000.0
MainBlock,5b060d9e68eff50001d1a2c1:TSS_DDL_092921,YELLOW,yellow,congruent,yellow,1.0,494.0,5.0,,1639176639583.0,1639176640077.0,1639176635594.0,0.0,0.0,1.0,Mixed,16.0,Accuracy,10000.0
MainBlock,5b060d9e68eff50001d1a2c1:TSS_DDL_092921,BLUE,red,incongruent,red,1.0,291.0,6.0,,1639176640593.0,1639176640884.0,1639176635594.0,0.0,0.0,1.0,Mixed,16.0,Accuracy,10000.0
MainBlock,5b060d9e68eff50001d1a2c1:TSS_DDL_092921,GREEN,green,congruent,green,1.0,469.0,7.0,,1639176641399.0,1639176641868.0,1639176635594.0,0.0,0.0,1.0,Mixed,16.0,Accuracy,10000.0
MainBlock,5b060d9e68eff50001d1a2c1:TSS_DDL_092921,YELLOW,blue,incongruent,blue,1.0,567.0,8.0,,1639176642373.0,1639176642940.0,1639176635594.0,0.0,0.0,1.0,Mixed,16.0,Accuracy,10000.0
MainBlock,5b060d9e68eff50001d1a2c1:TSS_DDL_092921,GREEN,green,congruent,yellow,0.0,464.0,9.0,,1639176643444.0,1639176643908.0,1639176635594.0,0.0,0.0,1.0,Mixed,16.0,Accuracy,10000.0
MainBlock,5b060d9e68eff50001d1a2c1:TSS_DDL_092921,RED,yellow,incongruent,yellow,1.0,438.0,10.0,,1639176644422.0,1639176644860.0,1639176635594.0,0.0,0.0,1.0,Mixed,16.0,Accuracy,10000.0
MainBlock,5b060d9e68eff50001d1a2c1:TSS_DDL_092921,,,,,,,,,,,,0.0,0.0,1.0,Mixed,16.0,Accuracy,10000.0
MainBlock,5b060d9e68eff50001d1a2c1:TSS_DDL_092921,RED,red,congruent,red,1.0,607.0,1.0,,1639176651119.0,1639176651726.0,1639176651118.0,0.0,0.0,1.0,Mixed,17.0,Speed_Accuracy,9000.0
MainBlock,5b060d9e68eff50001d1a2c1:TSS_DDL_092921,GREEN,yellow,incongruent,yellow,1.0,518.0,2.0,,1639176652239.0,1639176652757.0,1639176651118.0,0.0,0.0,1.0,Mixed,17.0,Speed_Accuracy,9000.0
MainBlock,5b060d9e68eff50001d1a2c1:TSS_DDL_092921,RED,red,congruent,red,1.0,451.0,3.0,,1639176653266.0,1639176653717.0,1639176651118.0,0.0,0.0,1.0,Mixed,17.0,Speed_Accuracy,9000.0
MainBlock,5b060d9e68eff50001d1a2c1:TSS_DDL_092921,GREEN,blue,incongruent,blue,1.0,547.0,4.0,,1639176654226.0,1639176654773.0,1639176651118.0,0.0,0.0,1.0,Mixed,17.0,Speed_Accuracy,9000.0
MainBlock,5b060d9e68eff50001d1a2c1:TSS_DDL_092921,RED,green,incongruent,green,1.0,362.0,5.0,,1639176655275.0,1639176655637.0,1639176651118.0,0.0,0.0,1.0,Mixed,17.0,Speed_Accuracy,9000.0
MainBlock,5b060d9e68eff50001d1a2c1:TSS_DDL_092921,YELLOW,blue,incongruent,blue,1.0,770.0,6.0,,1639176656147.0,1639176656917.0,1639176651118.0,0.0,0.0,1.0,Mixed,17.0,Speed_Accuracy,9000.0
MainBlock,5b060d9e68eff50001d1a2c1:TSS_DDL_092921,RED,red,congruent,red,1.0,505.0,7.0,,1639176657421.0,1639176657926.0,1639176651118.0,0.0,0.0,1.0,Mixed,17.0,Speed_Accuracy,9000.0
MainBlock,5b060d9e68eff50001d1a2c1:TSS_DDL_092921,BLUE,blue,congruent,green,0.0,553.0,8.0,,1639176658429.0,1639176658982.0,1639176651118.0,0.0,0.0,1.0,Mixed,17.0,Speed_Accuracy,9000.0
MainBlock,5b060d9e68eff50001d1a2c1:TSS_DDL_092921,GREEN,yellow,incongruent,yellow,1.0,530.0,9.0,,1639176659492.0,1639176660022.0,1639176651118.0,0.0,0.0,1.0,Mixed,17.0,Speed_Accuracy,9000.0
MainBlock,5b060d9e68eff50001d1a2c1:TSS_DDL_092921,,,,,,,,,,,,0.0,0.0,1.0,Mixed,17.0,Speed_Accuracy,9000.0
MainBlock,5b060d9e68eff50001d1a2c1:TSS_DDL_092921,GREEN,blue,incongruent,green,0.0,741.0,1.0,,1639176665131.0,1639176665872.0,1639176665131.0,0.0,0.0,1.0,Mixed,18.0,Speed,10000.0
MainBlock,5b060d9e68eff50001d1a2c1:TSS_DDL_092921,RED,red,congruent,red,1.0,438.0,2.0,,1639176666376.0,1639176666814.0,1639176665131.0,0.0,0.0,1.0,Mixed,18.0,Speed,10000.0
MainBlock,5b060d9e68eff50001d1a2c1:TSS_DDL_092921,BLUE,green,incongruent,green,1.0,794.0,3.0,,1639176667325.0,1639176668119.0,1639176665131.0,0.0,0.0,1.0,Mixed,18.0,Speed,10000.0
MainBlock,5b060d9e68eff50001d1a2c1:TSS_DDL_092921,YELLOW,red,incongruent,red,1.0,812.0,4.0,,1639176668635.0,1639176669447.0,1639176665131.0,0.0,0.0,1.0,Mixed,18.0,Speed,10000.0
MainBlock,5b060d9e68eff50001d1a2c1:TSS_DDL_092921,GREEN,green,congruent,green,1.0,507.0,5.0,,1639176669956.0,1639176670463.0,1639176665131.0,0.0,0.0,1.0,Mixed,18.0,Speed,10000.0
MainBlock,5b060d9e68eff50001d1a2c1:TSS_DDL_092921,BLUE,red,incongruent,red,1.0,1037.0,6.0,,1639176670970.0,1639176672007.0,1639176665131.0,0.0,0.0,1.0,Mixed,18.0,Speed,10000.0
MainBlock,5b060d9e68eff50001d1a2c1:TSS_DDL_092921,GREEN,green,congruent,green,1.0,488.0,7.0,,1639176672511.0,1639176672999.0,1639176665131.0,0.0,0.0,1.0,Mixed,18.0,Speed,10000.0
MainBlock,5b060d9e68eff50001d1a2c1:TSS_DDL_092921,RED,yellow,incongruent,yellow,1.0,526.0,8.0,,1639176673506.0,1639176674032.0,1639176665131.0,0.0,0.0,1.0,Mixed,18.0,Speed,10000.0
MainBlock,5b060d9e68eff50001d1a2c1:TSS_DDL_092921,BLUE,blue,congruent,blue,1.0,518.0,9.0,,1639176674538.0,1639176675056.0,1639176665131.0,0.0,0.0,1.0,Mixed,18.0,Speed,10000.0
MainBlock,5b060d9e68eff50001d1a2c1:TSS_DDL_092921,,,,,,,,,,,,0.0,0.0,1.0,Mixed,18.0,Speed,10000.0
MainBlock,5b060d9e68eff50001d1a2c1:TSS_DDL_092921,RED,red,congruent,red,1.0,777.0,1.0,,1639176681144.0,1639176681921.0,1639176681143.0,0.0,0.0,1.0,Mixed,19.0,Speed_Accuracy,9000.0
MainBlock,5b060d9e68eff50001d1a2c1:TSS_DDL_092921,BLUE,yellow,incongruent,yellow,1.0,655.0,2.0,,1639176682433.0,1639176683088.0,1639176681143.0,0.0,0.0,1.0,Mixed,19.0,Speed_Accuracy,9000.0
MainBlock,5b060d9e68eff50001d1a2c1:TSS_DDL_092921,GREEN,red,incongruent,red,1.0,466.0,3.0,,1639176683599.0,1639176684065.0,1639176681143.0,0.0,0.0,1.0,Mixed,19.0,Speed_Accuracy,9000.0
MainBlock,5b060d9e68eff50001d1a2c1:TSS_DDL_092921,YELLOW,green,incongruent,blue,0.0,564.0,4.0,,1639176684581.0,1639176685145.0,1639176681143.0,0.0,0.0,1.0,Mixed,19.0,Speed_Accuracy,9000.0
MainBlock,5b060d9e68eff50001d1a2c1:TSS_DDL_092921,BLUE,blue,congruent,blue,1.0,372.0,5.0,,1639176685660.0,1639176686032.0,1639176681143.0,0.0,0.0,1.0,Mixed,19.0,Speed_Accuracy,9000.0
MainBlock,5b060d9e68eff50001d1a2c1:TSS_DDL_092921,YELLOW,yellow,congruent,yellow,1.0,624.0,6.0,,1639176686545.0,1639176687169.0,1639176681143.0,0.0,0.0,1.0,Mixed,19.0,Speed_Accuracy,9000.0
MainBlock,5b060d9e68eff50001d1a2c1:TSS_DDL_092921,RED,red,congruent,red,1.0,576.0,7.0,,1639176687681.0,1639176688257.0,1639176681143.0,0.0,0.0,1.0,Mixed,19.0,Speed_Accuracy,9000.0
MainBlock,5b060d9e68eff50001d1a2c1:TSS_DDL_092921,GREEN,yellow,incongruent,yellow,1.0,626.0,8.0,,1639176688767.0,1639176689393.0,1639176681143.0,0.0,0.0,1.0,Mixed,19.0,Speed_Accuracy,9000.0
MainBlock,5b060d9e68eff50001d1a2c1:TSS_DDL_092921,,,,,,,,,,,,0.0,0.0,1.0,Mixed,19.0,Speed_Accuracy,9000.0
MainBlock,5b060d9e68eff50001d1a2c1:TSS_DDL_092921,GREEN,green,congruent,green,1.0,660.0,1.0,,1639176696183.0,1639176696843.0,1639176696183.0,0.0,0.0,1.0,Mixed,20.0,Accuracy,11000.0
MainBlock,5b060d9e68eff50001d1a2c1:TSS_DDL_092921,YELLOW,blue,incongruent,blue,1.0,544.0,2.0,,1639176697354.0,1639176697898.0,1639176696183.0,0.0,0.0,1.0,Mixed,20.0,Accuracy,11000.0
MainBlock,5b060d9e68eff50001d1a2c1:TSS_DDL_092921,GREEN,green,congruent,green,1.0,453.0,3.0,,1639176698413.0,1639176698866.0,1639176696183.0,0.0,0.0,1.0,Mixed,20.0,Accuracy,11000.0
MainBlock,5b060d9e68eff50001d1a2c1:TSS_DDL_092921,YELLOW,blue,incongruent,blue,1.0,422.0,4.0,,1639176699372.0,1639176699794.0,1639176696183.0,0.0,0.0,1.0,Mixed,20.0,Accuracy,11000.0
MainBlock,5b060d9e68eff50001d1a2c1:TSS_DDL_092921,GREEN,green,congruent,green,1.0,383.0,5.0,,1639176700307.0,1639176700690.0,1639176696183.0,0.0,0.0,1.0,Mixed,20.0,Accuracy,11000.0
MainBlock,5b060d9e68eff50001d1a2c1:TSS_DDL_092921,BLUE,red,incongruent,red,1.0,581.0,6.0,,1639176701205.0,1639176701786.0,1639176696183.0,0.0,0.0,1.0,Mixed,20.0,Accuracy,11000.0
MainBlock,5b060d9e68eff50001d1a2c1:TSS_DDL_092921,YELLOW,green,incongruent,green,1.0,577.0,7.0,,1639176702297.0,1639176702874.0,1639176696183.0,0.0,0.0,1.0,Mixed,20.0,Accuracy,11000.0
MainBlock,5b060d9e68eff50001d1a2c1:TSS_DDL_092921,BLUE,yellow,incongruent,yellow,1.0,499.0,8.0,,1639176703383.0,1639176703882.0,1639176696183.0,0.0,0.0,1.0,Mixed,20.0,Accuracy,11000.0
MainBlock,5b060d9e68eff50001d1a2c1:TSS_DDL_092921,RED,green,incongruent,green,1.0,486.0,9.0,,1639176704396.0,1639176704882.0,1639176696183.0,0.0,0.0,1.0,Mixed,20.0,Accuracy,11000.0
MainBlock,5b060d9e68eff50001d1a2c1:TSS_DDL_092921,BLUE,blue,congruent,blue,1.0,451.0,10.0,,1639176705391.0,1639176705842.0,1639176696183.0,0.0,0.0,1.0,Mixed,20.0,Accuracy,11000.0
MainBlock,5b060d9e68eff50001d1a2c1:TSS_DDL_092921,YELLOW,red,incongruent,red,1.0,514.0,11.0,,1639176706345.0,1639176706859.0,1639176696183.0,0.0,0.0,1.0,Mixed,20.0,Accuracy,11000.0
MainBlock,5b060d9e68eff50001d1a2c1:TSS_DDL_092921,,,,,,,,,,,,0.0,0.0,1.0,Mixed,20.0,Accuracy,11000.0
MainBlock,5b060d9e68eff50001d1a2c1:TSS_DDL_092921,GREEN,green,congruent,green,1.0,635.0,1.0,,1639176720018.0,1639176720653.0,1639176720018.0,0.0,0.0,2.0,Mixed,1.0,Speed,9000.0
MainBlock,5b060d9e68eff50001d1a2c1:TSS_DDL_092921,BLUE,red,incongruent,red,1.0,598.0,2.0,,1639176721158.0,1639176721756.0,1639176720018.0,0.0,0.0,2.0,Mixed,1.0,Speed,9000.0
MainBlock,5b060d9e68eff50001d1a2c1:TSS_DDL_092921,YELLOW,green,incongruent,green,1.0,502.0,3.0,,1639176722262.0,1639176722764.0,1639176720018.0,0.0,0.0,2.0,Mixed,1.0,Speed,9000.0
MainBlock,5b060d9e68eff50001d1a2c1:TSS_DDL_092921,RED,red,congruent,red,1.0,420.0,4.0,,1639176723280.0,1639176723700.0,1639176720018.0,0.0,0.0,2.0,Mixed,1.0,Speed,9000.0
MainBlock,5b060d9e68eff50001d1a2c1:TSS_DDL_092921,GREEN,green,congruent,green,1.0,384.0,5.0,,1639176724204.0,1639176724588.0,1639176720018.0,0.0,0.0,2.0,Mixed,1.0,Speed,9000.0
MainBlock,5b060d9e68eff50001d1a2c1:TSS_DDL_092921,RED,blue,incongruent,blue,1.0,523.0,6.0,,1639176725098.0,1639176725621.0,1639176720018.0,0.0,0.0,2.0,Mixed,1.0,Speed,9000.0
MainBlock,5b060d9e68eff50001d1a2c1:TSS_DDL_092921,GREEN,green,congruent,green,1.0,473.0,7.0,,1639176726124.0,1639176726597.0,1639176720018.0,0.0,0.0,2.0,Mixed,1.0,Speed,9000.0
MainBlock,5b060d9e68eff50001d1a2c1:TSS_DDL_092921,YELLOW,blue,incongruent,blue,1.0,616.0,8.0,,1639176727109.0,1639176727725.0,1639176720018.0,0.0,0.0,2.0,Mixed,1.0,Speed,9000.0
MainBlock,5b060d9e68eff50001d1a2c1:TSS_DDL_092921,BLUE,yellow,incongruent,yellow,1.0,637.0,9.0,,1639176728232.0,1639176728869.0,1639176720018.0,0.0,0.0,2.0,Mixed,1.0,Speed,9000.0
MainBlock,5b060d9e68eff50001d1a2c1:TSS_DDL_092921,,,,,,,,,,,,0.0,0.0,2.0,Mixed,1.0,Speed,9000.0
MainBlock,5b060d9e68eff50001d1a2c1:TSS_DDL_092921,RED,blue,incongruent,blue,1.0,1054.0,1.0,,1639176735049.0,1639176736103.0,1639176735048.0,0.0,0.0,2.0,Mixed,2.0,Speed,10000.0
MainBlock,5b060d9e68eff50001d1a2c1:TSS_DDL_092921,YELLOW,yellow,congruent,yellow,1.0,688.0,2.0,,1639176736614.0,1639176737302.0,1639176735048.0,0.0,0.0,2.0,Mixed,2.0,Speed,10000.0
MainBlock,5b060d9e68eff50001d1a2c1:TSS_DDL_092921,GREEN,blue,incongruent,blue,1.0,526.0,3.0,,1639176737816.0,1639176738342.0,1639176735048.0,0.0,0.0,2.0,Mixed,2.0,Speed,10000.0
MainBlock,5b060d9e68eff50001d1a2c1:TSS_DDL_092921,YELLOW,yellow,congruent,yellow,1.0,364.0,4.0,,1639176738858.0,1639176739222.0,1639176735048.0,0.0,0.0,2.0,Mixed,2.0,Speed,10000.0
MainBlock,5b060d9e68eff50001d1a2c1:TSS_DDL_092921,BLUE,red,incongruent,red,1.0,550.0,5.0,,1639176739728.0,1639176740278.0,1639176735048.0,0.0,0.0,2.0,Mixed,2.0,Speed,10000.0
MainBlock,5b060d9e68eff50001d1a2c1:TSS_DDL_092921,RED,green,incongruent,green,1.0,358.0,6.0,,1639176740784.0,1639176741142.0,1639176735048.0,0.0,0.0,2.0,Mixed,2.0,Speed,10000.0
MainBlock,5b060d9e68eff50001d1a2c1:TSS_DDL_092921,BLUE,blue,congruent,blue,1.0,483.0,7.0,,1639176741651.0,1639176742134.0,1639176735048.0,0.0,0.0,2.0,Mixed,2.0,Speed,10000.0
MainBlock,5b060d9e68eff50001d1a2c1:TSS_DDL_092921,RED,green,incongruent,green,1.0,508.0,8.0,,1639176742650.0,1639176743158.0,1639176735048.0,0.0,0.0,2.0,Mixed,2.0,Speed,10000.0
MainBlock,5b060d9e68eff50001d1a2c1:TSS_DDL_092921,YELLOW,yellow,congruent,yellow,1.0,540.0,9.0,,1639176743674.0,1639176744214.0,1639176735048.0,0.0,0.0,2.0,Mixed,2.0,Speed,10000.0
MainBlock,5b060d9e68eff50001d1a2c1:TSS_DDL_092921,,,,,,,,,,,,0.0,0.0,2.0,Mixed,2.0,Speed,10000.0
MainBlock,5b060d9e68eff50001d1a2c1:TSS_DDL_092921,RED,yellow,incongruent,yellow,1.0,661.0,1.0,,1639176751091.0,1639176751752.0,1639176751091.0,0.0,0.0,2.0,Mixed,3.0,Speed_Accuracy,12000.0
MainBlock,5b060d9e68eff50001d1a2c1:TSS_DDL_092921,GREEN,green,congruent,green,1.0,463.0,2.0,,1639176752256.0,1639176752719.0,1639176751091.0,0.0,0.0,2.0,Mixed,3.0,Speed_Accuracy,12000.0
MainBlock,5b060d9e68eff50001d1a2c1:TSS_DDL_092921,YELLOW,blue,incongruent,blue,1.0,496.0,3.0,,1639176753223.0,1639176753719.0,1639176751091.0,0.0,0.0,2.0,Mixed,3.0,Speed_Accuracy,12000.0
MainBlock,5b060d9e68eff50001d1a2c1:TSS_DDL_092921,RED,red,congruent,yellow,0.0,456.0,4.0,,1639176754233.0,1639176754689.0,1639176751091.0,0.0,0.0,2.0,Mixed,3.0,Speed_Accuracy,12000.0
MainBlock,5b060d9e68eff50001d1a2c1:TSS_DDL_092921,GREEN,yellow,incongruent,yellow,1.0,1100.0,5.0,,1639176755204.0,1639176756304.0,1639176751091.0,0.0,0.0,2.0,Mixed,3.0,Speed_Accuracy,12000.0
MainBlock,5b060d9e68eff50001d1a2c1:TSS_DDL_092921,BLUE,green,incongruent,green,1.0,862.0,6.0,,1639176756818.0,1639176757680.0,1639176751091.0,0.0,0.0,2.0,Mixed,3.0,Speed_Accuracy,12000.0
MainBlock,5b060d9e68eff50001d1a2c1:TSS_DDL_092921,YELLOW,yellow,congruent,yellow,1.0,497.0,7.0,,1639176758183.0,1639176758680.0,1639176751091.0,0.0,0.0,2.0,Mixed,3.0,Speed_Accuracy,12000.0
MainBlock,5b060d9e68eff50001d1a2c1:TSS_DDL_092921,BLUE,red,incongruent,red,1.0,505.0,8.0,,1639176759191.0,1639176759696.0,1639176751091.0,0.0,0.0,2.0,Mixed,3.0,Speed_Accuracy,12000.0
MainBlock,5b060d9e68eff50001d1a2c1:TSS_DDL_092921,GREEN,green,congruent,green,1.0,407.0,9.0,,1639176760209.0,1639176760616.0,1639176751091.0,0.0,0.0,2.0,Mixed,3.0,Speed_Accuracy,12000.0
MainBlock,5b060d9e68eff50001d1a2c1:TSS_DDL_092921,YELLOW,blue,incongruent,blue,1.0,463.0,10.0,,1639176761121.0,1639176761584.0,1639176751091.0,0.0,0.0,2.0,Mixed,3.0,Speed_Accuracy,12000.0
MainBlock,5b060d9e68eff50001d1a2c1:TSS_DDL_092921,GREEN,yellow,incongruent,yellow,1.0,350.0,11.0,,1639176762091.0,1639176762441.0,1639176751091.0,0.0,0.0,2.0,Mixed,3.0,Speed_Accuracy,12000.0
MainBlock,5b060d9e68eff50001d1a2c1:TSS_DDL_092921,,,,,,,,,,,,0.0,0.0,2.0,Mixed,3.0,Speed_Accuracy,12000.0
MainBlock,5b060d9e68eff50001d1a2c1:TSS_DDL_092921,BLUE,blue,congruent,blue,1.0,703.0,1.0,,1639176768106.0,1639176768809.0,1639176768106.0,0.0,0.0,2.0,Mixed,4.0,Accuracy,8000.0
MainBlock,5b060d9e68eff50001d1a2c1:TSS_DDL_092921,RED,green,incongruent,green,1.0,437.0,2.0,,1639176769323.0,1639176769760.0,1639176768106.0,0.0,0.0,2.0,Mixed,4.0,Accuracy,8000.0
MainBlock,5b060d9e68eff50001d1a2c1:TSS_DDL_092921,GREEN,yellow,incongruent,yellow,1.0,479.0,3.0,,1639176770265.0,1639176770744.0,1639176768106.0,0.0,0.0,2.0,Mixed,4.0,Accuracy,8000.0
MainBlock,5b060d9e68eff50001d1a2c1:TSS_DDL_092921,BLUE,blue,congruent,blue,1.0,525.0,4.0,,1639176771251.0,1639176771776.0,1639176768106.0,0.0,0.0,2.0,Mixed,4.0,Accuracy,8000.0
MainBlock,5b060d9e68eff50001d1a2c1:TSS_DDL_092921,RED,yellow,incongruent,red,0.0,480.0,5.0,,1639176772281.0,1639176772761.0,1639176768106.0,0.0,0.0,2.0,Mixed,4.0,Accuracy,8000.0
MainBlock,5b060d9e68eff50001d1a2c1:TSS_DDL_092921,BLUE,blue,congruent,blue,1.0,837.0,6.0,,1639176773276.0,1639176774113.0,1639176768106.0,0.0,0.0,2.0,Mixed,4.0,Accuracy,8000.0
MainBlock,5b060d9e68eff50001d1a2c1:TSS_DDL_092921,GREEN,red,incongruent,red,1.0,607.0,7.0,,1639176774626.0,1639176775233.0,1639176768106.0,0.0,0.0,2.0,Mixed,4.0,Accuracy,8000.0
MainBlock,5b060d9e68eff50001d1a2c1:TSS_DDL_092921,,,,,,,,,,,,0.0,0.0,2.0,Mixed,4.0,Accuracy,8000.0
MainBlock,5b060d9e68eff50001d1a2c1:TSS_DDL_092921,BLUE,green,incongruent,green,1.0,1103.0,1.0,,1639176781130.0,1639176782233.0,1639176781130.0,0.0,0.0,2.0,Mixed,5.0,Speed_Accuracy,11000.0
MainBlock,5b060d9e68eff50001d1a2c1:TSS_DDL_092921,YELLOW,yellow,congruent,yellow,1.0,449.0,2.0,,1639176782739.0,1639176783188.0,1639176781130.0,0.0,0.0,2.0,Mixed,5.0,Speed_Accuracy,11000.0
MainBlock,5b060d9e68eff50001d1a2c1:TSS_DDL_092921,RED,red,congruent,red,1.0,401.0,3.0,,1639176783689.0,1639176784090.0,1639176781130.0,0.0,0.0,2.0,Mixed,5.0,Speed_Accuracy,11000.0
MainBlock,5b060d9e68eff50001d1a2c1:TSS_DDL_092921,GREEN,yellow,incongruent,yellow,1.0,652.0,4.0,,1639176784606.0,1639176785258.0,1639176781130.0,0.0,0.0,2.0,Mixed,5.0,Speed_Accuracy,11000.0
MainBlock,5b060d9e68eff50001d1a2c1:TSS_DDL_092921,BLUE,blue,congruent,blue,1.0,489.0,5.0,,1639176785762.0,1639176786251.0,1639176781130.0,0.0,0.0,2.0,Mixed,5.0,Speed_Accuracy,11000.0
MainBlock,5b060d9e68eff50001d1a2c1:TSS_DDL_092921,RED,green,incongruent,green,1.0,325.0,6.0,,1639176786757.0,1639176787082.0,1639176781130.0,0.0,0.0,2.0,Mixed,5.0,Speed_Accuracy,11000.0
MainBlock,5b060d9e68eff50001d1a2c1:TSS_DDL_092921,BLUE,blue,congruent,blue,1.0,340.0,7.0,,1639176787598.0,1639176787938.0,1639176781130.0,0.0,0.0,2.0,Mixed,5.0,Speed_Accuracy,11000.0
MainBlock,5b060d9e68eff50001d1a2c1:TSS_DDL_092921,YELLOW,green,incongruent,green,1.0,387.0,8.0,,1639176788439.0,1639176788826.0,1639176781130.0,0.0,0.0,2.0,Mixed,5.0,Speed_Accuracy,11000.0
MainBlock,5b060d9e68eff50001d1a2c1:TSS_DDL_092921,GREEN,yellow,incongruent,yellow,1.0,475.0,9.0,,1639176789343.0,1639176789818.0,1639176781130.0,0.0,0.0,2.0,Mixed,5.0,Speed_Accuracy,11000.0
MainBlock,5b060d9e68eff50001d1a2c1:TSS_DDL_092921,RED,green,incongruent,red,0.0,344.0,10.0,,1639176790330.0,1639176790674.0,1639176781130.0,0.0,0.0,2.0,Mixed,5.0,Speed_Accuracy,11000.0
MainBlock,5b060d9e68eff50001d1a2c1:TSS_DDL_092921,BLUE,yellow,incongruent,yellow,1.0,544.0,11.0,,1639176791179.0,1639176791723.0,1639176781130.0,0.0,0.0,2.0,Mixed,5.0,Speed_Accuracy,11000.0
MainBlock,5b060d9e68eff50001d1a2c1:TSS_DDL_092921,,,,,,,,,,,,0.0,0.0,2.0,Mixed,5.0,Speed_Accuracy,11000.0
MainBlock,5b060d9e68eff50001d1a2c1:TSS_DDL_092921,BLUE,red,incongruent,red,1.0,572.0,1.0,,1639176797656.0,1639176798228.0,1639176797656.0,0.0,0.0,2.0,Mixed,6.0,Accuracy,10000.0
MainBlock,5b060d9e68eff50001d1a2c1:TSS_DDL_092921,YELLOW,yellow,congruent,yellow,1.0,480.0,2.0,,1639176798731.0,1639176799211.0,1639176797656.0,0.0,0.0,2.0,Mixed,6.0,Accuracy,10000.0
MainBlock,5b060d9e68eff50001d1a2c1:TSS_DDL_092921,RED,red,congruent,red,1.0,409.0,3.0,,1639176799714.0,1639176800123.0,1639176797656.0,0.0,0.0,2.0,Mixed,6.0,Accuracy,10000.0
MainBlock,5b060d9e68eff50001d1a2c1:TSS_DDL_092921,BLUE,yellow,incongruent,yellow,1.0,356.0,4.0,,1639176800631.0,1639176800987.0,1639176797656.0,0.0,0.0,2.0,Mixed,6.0,Accuracy,10000.0
MainBlock,5b060d9e68eff50001d1a2c1:TSS_DDL_092921,YELLOW,red,incongruent,yellow,0.0,384.0,5.0,,1639176801492.0,1639176801876.0,1639176797656.0,0.0,0.0,2.0,Mixed,6.0,Accuracy,10000.0
MainBlock,5b060d9e68eff50001d1a2c1:TSS_DDL_092921,RED,yellow,incongruent,yellow,1.0,686.0,6.0,,1639176802382.0,1639176803068.0,1639176797656.0,0.0,0.0,2.0,Mixed,6.0,Accuracy,10000.0
MainBlock,5b060d9e68eff50001d1a2c1:TSS_DDL_092921,BLUE,green,incongruent,green,1.0,594.0,7.0,,1639176803578.0,1639176804172.0,1639176797656.0,0.0,0.0,2.0,Mixed,6.0,Accuracy,10000.0
MainBlock,5b060d9e68eff50001d1a2c1:TSS_DDL_092921,YELLOW,yellow,congruent,yellow,1.0,494.0,8.0,,1639176804678.0,1639176805172.0,1639176797656.0,0.0,0.0,2.0,Mixed,6.0,Accuracy,10000.0
MainBlock,5b060d9e68eff50001d1a2c1:TSS_DDL_092921,RED,green,incongruent,blue,0.0,433.0,9.0,,1639176805683.0,1639176806116.0,1639176797656.0,0.0,0.0,2.0,Mixed,6.0,Accuracy,10000.0
MainBlock,5b060d9e68eff50001d1a2c1:TSS_DDL_092921,GREEN,red,incongruent,red,1.0,595.0,10.0,,1639176806625.0,1639176807220.0,1639176797656.0,0.0,0.0,2.0,Mixed,6.0,Accuracy,10000.0
MainBlock,5b060d9e68eff50001d1a2c1:TSS_DDL_092921,,,,,,,,,,,,0.0,0.0,2.0,Mixed,6.0,Accuracy,10000.0
MainBlock,5b060d9e68eff50001d1a2c1:TSS_DDL_092921,GREEN,green,congruent,green,1.0,1036.0,1.0,,1639176813682.0,1639176814718.0,1639176813681.0,0.0,0.0,2.0,Mixed,7.0,Speed,8000.0
MainBlock,5b060d9e68eff50001d1a2c1:TSS_DDL_092921,YELLOW,red,incongruent,red,1.0,755.0,2.0,,1639176815226.0,1639176815981.0,1639176813681.0,0.0,0.0,2.0,Mixed,7.0,Speed,8000.0
MainBlock,5b060d9e68eff50001d1a2c1:TSS_DDL_092921,GREEN,yellow,incongruent,yellow,1.0,502.0,3.0,,1639176816487.0,1639176816989.0,1639176813681.0,0.0,0.0,2.0,Mixed,7.0,Speed,8000.0
MainBlock,5b060d9e68eff50001d1a2c1:TSS_DDL_092921,BLUE,red,incongruent,red,1.0,501.0,4.0,,1639176817497.0,1639176817998.0,1639176813681.0,0.0,0.0,2.0,Mixed,7.0,Speed,8000.0
MainBlock,5b060d9e68eff50001d1a2c1:TSS_DDL_092921,GREEN,green,congruent,green,1.0,344.0,5.0,,1639176818509.0,1639176818853.0,1639176813681.0,0.0,0.0,2.0,Mixed,7.0,Speed,8000.0
MainBlock,5b060d9e68eff50001d1a2c1:TSS_DDL_092921,RED,blue,incongruent,blue,1.0,334.0,6.0,,1639176819367.0,1639176819701.0,1639176813681.0,0.0,0.0,2.0,Mixed,7.0,Speed,8000.0
MainBlock,5b060d9e68eff50001d1a2c1:TSS_DDL_092921,BLUE,yellow,incongruent,yellow,1.0,660.0,7.0,,1639176820209.0,1639176820869.0,1639176813681.0,0.0,0.0,2.0,Mixed,7.0,Speed,8000.0
MainBlock,5b060d9e68eff50001d1a2c1:TSS_DDL_092921,RED,red,congruent,red,1.0,299.0,8.0,,1639176821379.0,1639176821678.0,1639176813681.0,0.0,0.0,2.0,Mixed,7.0,Speed,8000.0
MainBlock,5b060d9e68eff50001d1a2c1:TSS_DDL_092921,,,,,,,,,,,,0.0,0.0,2.0,Mixed,7.0,Speed,8000.0
MainBlock,5b060d9e68eff50001d1a2c1:TSS_DDL_092921,GREEN,green,congruent,green,1.0,592.0,1.0,,1639176826703.0,1639176827295.0,1639176826702.0,0.0,0.0,2.0,Mixed,8.0,Speed_Accuracy,9000.0
MainBlock,5b060d9e68eff50001d1a2c1:TSS_DDL_092921,YELLOW,red,incongruent,red,1.0,577.0,2.0,,1639176827797.0,1639176828374.0,1639176826702.0,0.0,0.0,2.0,Mixed,8.0,Speed_Accuracy,9000.0
MainBlock,5b060d9e68eff50001d1a2c1:TSS_DDL_092921,BLUE,blue,congruent,blue,1.0,470.0,3.0,,1639176828888.0,1639176829358.0,1639176826702.0,0.0,0.0,2.0,Mixed,8.0,Speed_Accuracy,9000.0
MainBlock,5b060d9e68eff50001d1a2c1:TSS_DDL_092921,GREEN,yellow,incongruent,yellow,1.0,332.0,4.0,,1639176829875.0,1639176830207.0,1639176826702.0,0.0,0.0,2.0,Mixed,8.0,Speed_Accuracy,9000.0
MainBlock,5b060d9e68eff50001d1a2c1:TSS_DDL_092921,RED,green,incongruent,green,1.0,516.0,5.0,,1639176830715.0,1639176831231.0,1639176826702.0,0.0,0.0,2.0,Mixed,8.0,Speed_Accuracy,9000.0
MainBlock,5b060d9e68eff50001d1a2c1:TSS_DDL_092921,BLUE,red,incongruent,red,1.0,583.0,6.0,,1639176831736.0,1639176832319.0,1639176826702.0,0.0,0.0,2.0,Mixed,8.0,Speed_Accuracy,9000.0
MainBlock,5b060d9e68eff50001d1a2c1:TSS_DDL_092921,GREEN,blue,incongruent,blue,1.0,587.0,7.0,,1639176832836.0,1639176833423.0,1639176826702.0,0.0,0.0,2.0,Mixed,8.0,Speed_Accuracy,9000.0
MainBlock,5b060d9e68eff50001d1a2c1:TSS_DDL_092921,YELLOW,yellow,congruent,yellow,1.0,645.0,8.0,,1639176833938.0,1639176834583.0,1639176826702.0,0.0,0.0,2.0,Mixed,8.0,Speed_Accuracy,9000.0
MainBlock,5b060d9e68eff50001d1a2c1:TSS_DDL_092921,,,,,,,,,,,,0.0,0.0,2.0,Mixed,8.0,Speed_Accuracy,9000.0
MainBlock,5b060d9e68eff50001d1a2c1:TSS_DDL_092921,GREEN,blue,incongruent,blue,1.0,607.0,1.0,,1639176840746.0,1639176841353.0,1639176840745.0,0.0,0.0,2.0,Mixed,9.0,Accuracy,9000.0
MainBlock,5b060d9e68eff50001d1a2c1:TSS_DDL_092921,YELLOW,yellow,congruent,yellow,1.0,624.0,2.0,,1639176841856.0,1639176842480.0,1639176840745.0,0.0,0.0,2.0,Mixed,9.0,Accuracy,9000.0
MainBlock,5b060d9e68eff50001d1a2c1:TSS_DDL_092921,RED,red,congruent,red,1.0,473.0,3.0,,1639176842991.0,1639176843464.0,1639176840745.0,0.0,0.0,2.0,Mixed,9.0,Accuracy,9000.0
MainBlock,5b060d9e68eff50001d1a2c1:TSS_DDL_092921,BLUE,yellow,incongruent,yellow,1.0,448.0,4.0,,1639176843968.0,1639176844416.0,1639176840745.0,0.0,0.0,2.0,Mixed,9.0,Accuracy,9000.0
MainBlock,5b060d9e68eff50001d1a2c1:TSS_DDL_092921,YELLOW,green,incongruent,blue,0.0,548.0,5.0,,1639176844932.0,1639176845480.0,1639176840745.0,0.0,0.0,2.0,Mixed,9.0,Accuracy,9000.0
MainBlock,5b060d9e68eff50001d1a2c1:TSS_DDL_092921,GREEN,red,incongruent,red,1.0,531.0,6.0,,1639176845990.0,1639176846521.0,1639176840745.0,0.0,0.0,2.0,Mixed,9.0,Accuracy,9000.0
MainBlock,5b060d9e68eff50001d1a2c1:TSS_DDL_092921,BLUE,yellow,incongruent,yellow,1.0,669.0,7.0,,1639176847022.0,1639176847691.0,1639176840745.0,0.0,0.0,2.0,Mixed,9.0,Accuracy,9000.0
MainBlock,5b060d9e68eff50001d1a2c1:TSS_DDL_092921,RED,red,congruent,red,1.0,605.0,8.0,,1639176848196.0,1639176848801.0,1639176840745.0,0.0,0.0,2.0,Mixed,9.0,Accuracy,9000.0
MainBlock,5b060d9e68eff50001d1a2c1:TSS_DDL_092921,,,,,,,,,,,,0.0,0.0,2.0,Mixed,9.0,Accuracy,9000.0
MainBlock,5b060d9e68eff50001d1a2c1:TSS_DDL_092921,BLUE,green,incongruent,green,1.0,702.0,1.0,,1639176855284.0,1639176855986.0,1639176855283.0,0.0,0.0,2.0,Mixed,10.0,Accuracy,9000.0
MainBlock,5b060d9e68eff50001d1a2c1:TSS_DDL_092921,YELLOW,yellow,congruent,yellow,1.0,501.0,2.0,,1639176856501.0,1639176857002.0,1639176855283.0,0.0,0.0,2.0,Mixed,10.0,Accuracy,9000.0
MainBlock,5b060d9e68eff50001d1a2c1:TSS_DDL_092921,BLUE,green,incongruent,green,1.0,364.0,3.0,,1639176857518.0,1639176857882.0,1639176855283.0,0.0,0.0,2.0,Mixed,10.0,Accuracy,9000.0
MainBlock,5b060d9e68eff50001d1a2c1:TSS_DDL_092921,GREEN,yellow,incongruent,green,0.0,453.0,4.0,,1639176858390.0,1639176858843.0,1639176855283.0,0.0,0.0,2.0,Mixed,10.0,Accuracy,9000.0
MainBlock,5b060d9e68eff50001d1a2c1:TSS_DDL_092921,RED,red,congruent,red,1.0,436.0,5.0,,1639176859358.0,1639176859794.0,1639176855283.0,0.0,0.0,2.0,Mixed,10.0,Accuracy,9000.0
MainBlock,5b060d9e68eff50001d1a2c1:TSS_DDL_092921,GREEN,blue,incongruent,blue,1.0,513.0,6.0,,1639176860297.0,1639176860810.0,1639176855283.0,0.0,0.0,2.0,Mixed,10.0,Accuracy,9000.0
MainBlock,5b060d9e68eff50001d1a2c1:TSS_DDL_092921,RED,red,congruent,yellow,0.0,426.0,7.0,,1639176861312.0,1639176861738.0,1639176855283.0,0.0,0.0,2.0,Mixed,10.0,Accuracy,9000.0
MainBlock,5b060d9e68eff50001d1a2c1:TSS_DDL_092921,GREEN,blue,incongruent,blue,1.0,727.0,8.0,,1639176862252.0,1639176862979.0,1639176855283.0,0.0,0.0,2.0,Mixed,10.0,Accuracy,9000.0
MainBlock,5b060d9e68eff50001d1a2c1:TSS_DDL_092921,BLUE,yellow,incongruent,yellow,1.0,623.0,9.0,,1639176863484.0,1639176864107.0,1639176855283.0,0.0,0.0,2.0,Mixed,10.0,Accuracy,9000.0
MainBlock,5b060d9e68eff50001d1a2c1:TSS_DDL_092921,,,,,,,,,,,,0.0,0.0,2.0,Mixed,10.0,Accuracy,9000.0
MainBlock,5b060d9e68eff50001d1a2c1:TSS_DDL_092921,YELLOW,green,incongruent,green,1.0,774.0,1.0,,1639176870302.0,1639176871076.0,1639176870302.0,0.0,0.0,2.0,Mixed,11.0,Accuracy,12000.0
MainBlock,5b060d9e68eff50001d1a2c1:TSS_DDL_092921,BLUE,blue,congruent,blue,1.0,483.0,2.0,,1639176871593.0,1639176872076.0,1639176870302.0,0.0,0.0,2.0,Mixed,11.0,Accuracy,12000.0
MainBlock,5b060d9e68eff50001d1a2c1:TSS_DDL_092921,RED,green,incongruent,green,1.0,396.0,3.0,,1639176872591.0,1639176872987.0,1639176870302.0,0.0,0.0,2.0,Mixed,11.0,Accuracy,12000.0
MainBlock,5b060d9e68eff50001d1a2c1:TSS_DDL_092921,GREEN,red,incongruent,red,1.0,558.0,4.0,,1639176873493.0,1639176874051.0,1639176870302.0,0.0,0.0,2.0,Mixed,11.0,Accuracy,12000.0
MainBlock,5b060d9e68eff50001d1a2c1:TSS_DDL_092921,BLUE,blue,congruent,blue,1.0,515.0,5.0,,1639176874568.0,1639176875083.0,1639176870302.0,0.0,0.0,2.0,Mixed,11.0,Accuracy,12000.0
MainBlock,5b060d9e68eff50001d1a2c1:TSS_DDL_092921,YELLOW,green,incongruent,green,1.0,705.0,6.0,,1639176875594.0,1639176876299.0,1639176870302.0,0.0,0.0,2.0,Mixed,11.0,Accuracy,12000.0
MainBlock,5b060d9e68eff50001d1a2c1:TSS_DDL_092921,RED,red,congruent,red,1.0,455.0,7.0,,1639176876805.0,1639176877260.0,1639176870302.0,0.0,0.0,2.0,Mixed,11.0,Accuracy,12000.0
MainBlock,5b060d9e68eff50001d1a2c1:TSS_DDL_092921,BLUE,yellow,incongruent,yellow,1.0,340.0,8.0,,1639176877768.0,1639176878108.0,1639176870302.0,0.0,0.0,2.0,Mixed,11.0,Accuracy,12000.0
MainBlock,5b060d9e68eff50001d1a2c1:TSS_DDL_092921,RED,green,incongruent,green,1.0,672.0,9.0,,1639176878612.0,1639176879284.0,1639176870302.0,0.0,0.0,2.0,Mixed,11.0,Accuracy,12000.0
MainBlock,5b060d9e68eff50001d1a2c1:TSS_DDL_092921,GREEN,red,incongruent,red,1.0,373.0,10.0,,1639176879799.0,1639176880172.0,1639176870302.0,0.0,0.0,2.0,Mixed,11.0,Accuracy,12000.0
MainBlock,5b060d9e68eff50001d1a2c1:TSS_DDL_092921,YELLOW,yellow,congruent,yellow,1.0,489.0,11.0,,1639176880684.0,1639176881173.0,1639176870302.0,0.0,0.0,2.0,Mixed,11.0,Accuracy,12000.0
MainBlock,5b060d9e68eff50001d1a2c1:TSS_DDL_092921,GREEN,green,congruent,green,1.0,464.0,12.0,,1639176881676.0,1639176882140.0,1639176870302.0,0.0,0.0,2.0,Mixed,11.0,Accuracy,12000.0
MainBlock,5b060d9e68eff50001d1a2c1:TSS_DDL_092921,,,,,,,,,,,,0.0,0.0,2.0,Mixed,11.0,Accuracy,12000.0
MainBlock,5b060d9e68eff50001d1a2c1:TSS_DDL_092921,BLUE,red,incongruent,red,1.0,572.0,1.0,,1639176887849.0,1639176888421.0,1639176887848.0,0.0,0.0,2.0,Mixed,12.0,Speed,11000.0
MainBlock,5b060d9e68eff50001d1a2c1:TSS_DDL_092921,YELLOW,yellow,congruent,yellow,1.0,336.0,2.0,,1639176888925.0,1639176889261.0,1639176887848.0,0.0,0.0,2.0,Mixed,12.0,Speed,11000.0
MainBlock,5b060d9e68eff50001d1a2c1:TSS_DDL_092921,RED,green,incongruent,green,1.0,433.0,3.0,,1639176889764.0,1639176890197.0,1639176887848.0,0.0,0.0,2.0,Mixed,12.0,Speed,11000.0
MainBlock,5b060d9e68eff50001d1a2c1:TSS_DDL_092921,YELLOW,red,incongruent,red,1.0,445.0,4.0,,1639176890704.0,1639176891149.0,1639176887848.0,0.0,0.0,2.0,Mixed,12.0,Speed,11000.0
MainBlock,5b060d9e68eff50001d1a2c1:TSS_DDL_092921,BLUE,blue,congruent,blue,1.0,573.0,5.0,,1639176891657.0,1639176892230.0,1639176887848.0,0.0,0.0,2.0,Mixed,12.0,Speed,11000.0
MainBlock,5b060d9e68eff50001d1a2c1:TSS_DDL_092921,RED,red,congruent,red,1.0,524.0,6.0,,1639176892745.0,1639176893269.0,1639176887848.0,0.0,0.0,2.0,Mixed,12.0,Speed,11000.0
MainBlock,5b060d9e68eff50001d1a2c1:TSS_DDL_092921,GREEN,green,congruent,green,1.0,388.0,7.0,,1639176893777.0,1639176894165.0,1639176887848.0,0.0,0.0,2.0,Mixed,12.0,Speed,11000.0
MainBlock,5b060d9e68eff50001d1a2c1:TSS_DDL_092921,YELLOW,red,incongruent,red,1.0,308.0,8.0,,1639176894681.0,1639176894989.0,1639176887848.0,0.0,0.0,2.0,Mixed,12.0,Speed,11000.0
MainBlock,5b060d9e68eff50001d1a2c1:TSS_DDL_092921,GREEN,green,congruent,green,1.0,494.0,9.0,,1639176895495.0,1639176895989.0,1639176887848.0,0.0,0.0,2.0,Mixed,12.0,Speed,11000.0
MainBlock,5b060d9e68eff50001d1a2c1:TSS_DDL_092921,RED,yellow,incongruent,yellow,1.0,442.0,10.0,,1639176896491.0,1639176896933.0,1639176887848.0,0.0,0.0,2.0,Mixed,12.0,Speed,11000.0
MainBlock,5b060d9e68eff50001d1a2c1:TSS_DDL_092921,GREEN,green,congruent,green,1.0,449.0,11.0,,1639176897444.0,1639176897893.0,1639176887848.0,0.0,0.0,2.0,Mixed,12.0,Speed,11000.0
MainBlock,5b060d9e68eff50001d1a2c1:TSS_DDL_092921,,,,,,,,,,,,0.0,0.0,2.0,Mixed,12.0,Speed,11000.0
MainBlock,5b060d9e68eff50001d1a2c1:TSS_DDL_092921,RED,red,congruent,red,1.0,488.0,1.0,,1639176904871.0,1639176905359.0,1639176904870.0,0.0,0.0,2.0,Mixed,13.0,Speed_Accuracy,10000.0
MainBlock,5b060d9e68eff50001d1a2c1:TSS_DDL_092921,GREEN,yellow,incongruent,red,0.0,327.0,2.0,,1639176905871.0,1639176906198.0,1639176904870.0,0.0,0.0,2.0,Mixed,13.0,Speed_Accuracy,10000.0
MainBlock,5b060d9e68eff50001d1a2c1:TSS_DDL_092921,BLUE,blue,congruent,blue,1.0,835.0,3.0,,1639176906707.0,1639176907542.0,1639176904870.0,0.0,0.0,2.0,Mixed,13.0,Speed_Accuracy,10000.0
MainBlock,5b060d9e68eff50001d1a2c1:TSS_DDL_092921,YELLOW,green,incongruent,green,1.0,351.0,4.0,,1639176908056.0,1639176908407.0,1639176904870.0,0.0,0.0,2.0,Mixed,13.0,Speed_Accuracy,10000.0
MainBlock,5b060d9e68eff50001d1a2c1:TSS_DDL_092921,GREEN,red,incongruent,yellow,0.0,371.0,5.0,,1639176908915.0,1639176909286.0,1639176904870.0,0.0,0.0,2.0,Mixed,13.0,Speed_Accuracy,10000.0
MainBlock,5b060d9e68eff50001d1a2c1:TSS_DDL_092921,YELLOW,yellow,congruent,yellow,1.0,323.0,6.0,,1639176909796.0,1639176910119.0,1639176904870.0,0.0,0.0,2.0,Mixed,13.0,Speed_Accuracy,10000.0
MainBlock,5b060d9e68eff50001d1a2c1:TSS_DDL_092921,RED,green,incongruent,green,1.0,563.0,7.0,,1639176910620.0,1639176911183.0,1639176904870.0,0.0,0.0,2.0,Mixed,13.0,Speed_Accuracy,10000.0
MainBlock,5b060d9e68eff50001d1a2c1:TSS_DDL_092921,YELLOW,yellow,congruent,yellow,1.0,534.0,8.0,,1639176911697.0,1639176912231.0,1639176904870.0,0.0,0.0,2.0,Mixed,13.0,Speed_Accuracy,10000.0
MainBlock,5b060d9e68eff50001d1a2c1:TSS_DDL_092921,GREEN,green,congruent,green,1.0,514.0,9.0,,1639176912741.0,1639176913255.0,1639176904870.0,0.0,0.0,2.0,Mixed,13.0,Speed_Accuracy,10000.0
MainBlock,5b060d9e68eff50001d1a2c1:TSS_DDL_092921,RED,yellow,incongruent,yellow,1.0,518.0,10.0,,1639176913769.0,1639176914287.0,1639176904870.0,0.0,0.0,2.0,Mixed,13.0,Speed_Accuracy,10000.0
MainBlock,5b060d9e68eff50001d1a2c1:TSS_DDL_092921,,,,,,,,,,,,0.0,0.0,2.0,Mixed,13.0,Speed_Accuracy,10000.0
MainBlock,5b060d9e68eff50001d1a2c1:TSS_DDL_092921,BLUE,red,incongruent,red,1.0,834.0,1.0,,1639176920382.0,1639176921216.0,1639176920381.0,0.0,0.0,2.0,Mixed,14.0,Speed,8000.0
MainBlock,5b060d9e68eff50001d1a2c1:TSS_DDL_092921,GREEN,green,congruent,green,1.0,498.0,2.0,,1639176921726.0,1639176922224.0,1639176920381.0,0.0,0.0,2.0,Mixed,14.0,Speed,8000.0
MainBlock,5b060d9e68eff50001d1a2c1:TSS_DDL_092921,RED,red,congruent,red,1.0,349.0,3.0,,1639176922739.0,1639176923088.0,1639176920381.0,0.0,0.0,2.0,Mixed,14.0,Speed,8000.0
MainBlock,5b060d9e68eff50001d1a2c1:TSS_DDL_092921,BLUE,yellow,incongruent,yellow,1.0,545.0,4.0,,1639176923599.0,1639176924144.0,1639176920381.0,0.0,0.0,2.0,Mixed,14.0,Speed,8000.0
MainBlock,5b060d9e68eff50001d1a2c1:TSS_DDL_092921,RED,red,congruent,green,0.0,437.0,5.0,,1639176924659.0,1639176925096.0,1639176920381.0,0.0,0.0,2.0,Mixed,14.0,Speed,8000.0
MainBlock,5b060d9e68eff50001d1a2c1:TSS_DDL_092921,GREEN,yellow,incongruent,yellow,1.0,803.0,6.0,,1639176925605.0,1639176926408.0,1639176920381.0,0.0,0.0,2.0,Mixed,14.0,Speed,8000.0
MainBlock,5b060d9e68eff50001d1a2c1:TSS_DDL_092921,BLUE,red,incongruent,red,1.0,417.0,7.0,,1639176926920.0,1639176927337.0,1639176920381.0,0.0,0.0,2.0,Mixed,14.0,Speed,8000.0
MainBlock,5b060d9e68eff50001d1a2c1:TSS_DDL_092921,YELLOW,yellow,congruent,yellow,1.0,396.0,8.0,,1639176927852.0,1639176928248.0,1639176920381.0,0.0,0.0,2.0,Mixed,14.0,Speed,8000.0
MainBlock,5b060d9e68eff50001d1a2c1:TSS_DDL_092921,,,,,,,,,,,,0.0,0.0,2.0,Mixed,14.0,Speed,8000.0
MainBlock,5b060d9e68eff50001d1a2c1:TSS_DDL_092921,YELLOW,yellow,congruent,yellow,1.0,729.0,1.0,,1639176933937.0,1639176934666.0,1639176933936.0,0.0,0.0,2.0,Mixed,15.0,Speed,12000.0
MainBlock,5b060d9e68eff50001d1a2c1:TSS_DDL_092921,RED,green,incongruent,green,1.0,631.0,2.0,,1639176935170.0,1639176935801.0,1639176933936.0,0.0,0.0,2.0,Mixed,15.0,Speed,12000.0
MainBlock,5b060d9e68eff50001d1a2c1:TSS_DDL_092921,YELLOW,yellow,congruent,yellow,1.0,433.0,3.0,,1639176936312.0,1639176936745.0,1639176933936.0,0.0,0.0,2.0,Mixed,15.0,Speed,12000.0
MainBlock,5b060d9e68eff50001d1a2c1:TSS_DDL_092921,BLUE,green,incongruent,green,1.0,750.0,4.0,,1639176937259.0,1639176938009.0,1639176933936.0,0.0,0.0,2.0,Mixed,15.0,Speed,12000.0
MainBlock,5b060d9e68eff50001d1a2c1:TSS_DDL_092921,RED,red,congruent,red,1.0,650.0,5.0,,1639176938520.0,1639176939170.0,1639176933936.0,0.0,0.0,2.0,Mixed,15.0,Speed,12000.0
MainBlock,5b060d9e68eff50001d1a2c1:TSS_DDL_092921,GREEN,blue,incongruent,blue,1.0,548.0,6.0,,1639176939685.0,1639176940233.0,1639176933936.0,0.0,0.0,2.0,Mixed,15.0,Speed,12000.0
MainBlock,5b060d9e68eff50001d1a2c1:TSS_DDL_092921,RED,red,congruent,red,1.0,396.0,7.0,,1639176940742.0,1639176941138.0,1639176933936.0,0.0,0.0,2.0,Mixed,15.0,Speed,12000.0
MainBlock,5b060d9e68eff50001d1a2c1:TSS_DDL_092921,BLUE,yellow,incongruent,yellow,1.0,531.0,8.0,,1639176941647.0,1639176942178.0,1639176933936.0,0.0,0.0,2.0,Mixed,15.0,Speed,12000.0
MainBlock,5b060d9e68eff50001d1a2c1:TSS_DDL_092921,RED,red,congruent,red,1.0,453.0,9.0,,1639176942693.0,1639176943146.0,1639176933936.0,0.0,0.0,2.0,Mixed,15.0,Speed,12000.0
MainBlock,5b060d9e68eff50001d1a2c1:TSS_DDL_092921,YELLOW,blue,incongruent,blue,1.0,610.0,10.0,,1639176943656.0,1639176944266.0,1639176933936.0,0.0,0.0,2.0,Mixed,15.0,Speed,12000.0
MainBlock,5b060d9e68eff50001d1a2c1:TSS_DDL_092921,BLUE,yellow,incongruent,yellow,1.0,589.0,11.0,,1639176944774.0,1639176945363.0,1639176933936.0,0.0,0.0,2.0,Mixed,15.0,Speed,12000.0
MainBlock,5b060d9e68eff50001d1a2c1:TSS_DDL_092921,,,,,,,,,,,,0.0,0.0,2.0,Mixed,15.0,Speed,12000.0
MainBlock,5b060d9e68eff50001d1a2c1:TSS_DDL_092921,RED,red,congruent,red,1.0,571.0,1.0,,1639176950952.0,1639176951523.0,1639176950951.0,0.0,0.0,2.0,Mixed,16.0,Accuracy,8000.0
MainBlock,5b060d9e68eff50001d1a2c1:TSS_DDL_092921,GREEN,blue,incongruent,blue,1.0,658.0,2.0,,1639176952026.0,1639176952684.0,1639176950951.0,0.0,0.0,2.0,Mixed,16.0,Accuracy,8000.0
MainBlock,5b060d9e68eff50001d1a2c1:TSS_DDL_092921,BLUE,yellow,incongruent,yellow,1.0,788.0,3.0,,1639176953191.0,1639176953979.0,1639176950951.0,0.0,0.0,2.0,Mixed,16.0,Accuracy,8000.0
MainBlock,5b060d9e68eff50001d1a2c1:TSS_DDL_092921,YELLOW,red,incongruent,red,1.0,620.0,4.0,,1639176954495.0,1639176955115.0,1639176950951.0,0.0,0.0,2.0,Mixed,16.0,Accuracy,8000.0
MainBlock,5b060d9e68eff50001d1a2c1:TSS_DDL_092921,BLUE,blue,congruent,blue,1.0,650.0,5.0,,1639176955626.0,1639176956276.0,1639176950951.0,0.0,0.0,2.0,Mixed,16.0,Accuracy,8000.0
MainBlock,5b060d9e68eff50001d1a2c1:TSS_DDL_092921,RED,red,congruent,red,1.0,460.0,6.0,,1639176956792.0,1639176957252.0,1639176950951.0,0.0,0.0,2.0,Mixed,16.0,Accuracy,8000.0
MainBlock,5b060d9e68eff50001d1a2c1:TSS_DDL_092921,GREEN,green,congruent,green,1.0,585.0,7.0,,1639176957763.0,1639176958348.0,1639176950951.0,0.0,0.0,2.0,Mixed,16.0,Accuracy,8000.0
MainBlock,5b060d9e68eff50001d1a2c1:TSS_DDL_092921,,,,,,,,,,,,0.0,0.0,2.0,Mixed,16.0,Accuracy,8000.0
MainBlock,5b060d9e68eff50001d1a2c1:TSS_DDL_092921,BLUE,blue,congruent,blue,1.0,621.0,1.0,,1639176963984.0,1639176964605.0,1639176963984.0,0.0,0.0,2.0,Mixed,17.0,Accuracy,11000.0
MainBlock,5b060d9e68eff50001d1a2c1:TSS_DDL_092921,GREEN,yellow,incongruent,yellow,1.0,577.0,2.0,,1639176965117.0,1639176965694.0,1639176963984.0,0.0,0.0,2.0,Mixed,17.0,Accuracy,11000.0
MainBlock,5b060d9e68eff50001d1a2c1:TSS_DDL_092921,BLUE,blue,congruent,blue,1.0,515.0,3.0,,1639176966210.0,1639176966725.0,1639176963984.0,0.0,0.0,2.0,Mixed,17.0,Accuracy,11000.0
MainBlock,5b060d9e68eff50001d1a2c1:TSS_DDL_092921,GREEN,red,incongruent,red,1.0,459.0,4.0,,1639176967242.0,1639176967701.0,1639176963984.0,0.0,0.0,2.0,Mixed,17.0,Accuracy,11000.0
MainBlock,5b060d9e68eff50001d1a2c1:TSS_DDL_092921,BLUE,blue,congruent,none,0.0,728.0,5.0,,1639176968205.0,1639176968933.0,1639176963984.0,0.0,0.0,2.0,Mixed,17.0,Accuracy,11000.0
MainBlock,5b060d9e68eff50001d1a2c1:TSS_DDL_092921,RED,green,incongruent,green,1.0,647.0,6.0,,1639176969438.0,1639176970085.0,1639176963984.0,0.0,0.0,2.0,Mixed,17.0,Accuracy,11000.0
MainBlock,5b060d9e68eff50001d1a2c1:TSS_DDL_092921,GREEN,red,incongruent,yellow,0.0,567.0,7.0,,1639176970590.0,1639176971157.0,1639176963984.0,0.0,0.0,2.0,Mixed,17.0,Accuracy,11000.0
MainBlock,5b060d9e68eff50001d1a2c1:TSS_DDL_092921,BLUE,blue,congruent,blue,1.0,525.0,8.0,,1639176971672.0,1639176972197.0,1639176963984.0,0.0,0.0,2.0,Mixed,17.0,Accuracy,11000.0
MainBlock,5b060d9e68eff50001d1a2c1:TSS_DDL_092921,YELLOW,red,incongruent,yellow,0.0,549.0,9.0,,1639176972712.0,1639176973261.0,1639176963984.0,0.0,0.0,2.0,Mixed,17.0,Accuracy,11000.0
MainBlock,5b060d9e68eff50001d1a2c1:TSS_DDL_092921,RED,blue,incongruent,blue,1.0,776.0,10.0,,1639176973766.0,1639176974542.0,1639176963984.0,0.0,0.0,2.0,Mixed,17.0,Accuracy,11000.0
MainBlock,5b060d9e68eff50001d1a2c1:TSS_DDL_092921,,,,,,,,,,,,0.0,0.0,2.0,Mixed,17.0,Accuracy,11000.0
MainBlock,5b060d9e68eff50001d1a2c1:TSS_DDL_092921,BLUE,blue,congruent,blue,1.0,2130.0,1.0,,1639176980013.0,1639176982143.0,1639176980012.0,0.0,0.0,2.0,Mixed,18.0,Speed_Accuracy,8000.0
MainBlock,5b060d9e68eff50001d1a2c1:TSS_DDL_092921,GREEN,yellow,incongruent,yellow,1.0,548.0,2.0,,1639176982650.0,1639176983198.0,1639176980012.0,0.0,0.0,2.0,Mixed,18.0,Speed_Accuracy,8000.0
MainBlock,5b060d9e68eff50001d1a2c1:TSS_DDL_092921,YELLOW,blue,incongruent,blue,1.0,641.0,3.0,,1639176983709.0,1639176984350.0,1639176980012.0,0.0,0.0,2.0,Mixed,18.0,Speed_Accuracy,8000.0
MainBlock,5b060d9e68eff50001d1a2c1:TSS_DDL_092921,GREEN,green,congruent,green,1.0,622.0,4.0,,1639176984856.0,1639176985478.0,1639176980012.0,0.0,0.0,2.0,Mixed,18.0,Speed_Accuracy,8000.0
MainBlock,5b060d9e68eff50001d1a2c1:TSS_DDL_092921,BLUE,yellow,incongruent,yellow,1.0,745.0,5.0,,1639176985982.0,1639176986727.0,1639176980012.0,0.0,0.0,2.0,Mixed,18.0,Speed_Accuracy,8000.0
MainBlock,5b060d9e68eff50001d1a2c1:TSS_DDL_092921,,,,,,,,,,,,0.0,0.0,2.0,Mixed,18.0,Speed_Accuracy,8000.0
MainBlock,5b060d9e68eff50001d1a2c1:TSS_DDL_092921,BLUE,blue,congruent,blue,1.0,817.0,1.0,,1639176993552.0,1639176994369.0,1639176993551.0,0.0,0.0,2.0,Mixed,19.0,Speed_Accuracy,9000.0
MainBlock,5b060d9e68eff50001d1a2c1:TSS_DDL_092921,GREEN,yellow,incongruent,yellow,1.0,654.0,2.0,,1639176994874.0,1639176995528.0,1639176993551.0,0.0,0.0,2.0,Mixed,19.0,Speed_Accuracy,9000.0
MainBlock,5b060d9e68eff50001d1a2c1:TSS_DDL_092921,YELLOW,red,incongruent,red,1.0,570.0,3.0,,1639176996030.0,1639176996600.0,1639176993551.0,0.0,0.0,2.0,Mixed,19.0,Speed_Accuracy,9000.0
MainBlock,5b060d9e68eff50001d1a2c1:TSS_DDL_092921,RED,green,incongruent,green,1.0,574.0,4.0,,1639176997106.0,1639176997680.0,1639176993551.0,0.0,0.0,2.0,Mixed,19.0,Speed_Accuracy,9000.0
MainBlock,5b060d9e68eff50001d1a2c1:TSS_DDL_092921,YELLOW,yellow,congruent,yellow,1.0,603.0,5.0,,1639176998189.0,1639176998792.0,1639176993551.0,0.0,0.0,2.0,Mixed,19.0,Speed_Accuracy,9000.0
MainBlock,5b060d9e68eff50001d1a2c1:TSS_DDL_092921,GREEN,green,congruent,green,1.0,505.0,6.0,,1639176999295.0,1639176999800.0,1639176993551.0,0.0,0.0,2.0,Mixed,19.0,Speed_Accuracy,9000.0
MainBlock,5b060d9e68eff50001d1a2c1:TSS_DDL_092921,YELLOW,yellow,congruent,yellow,1.0,408.0,7.0,,1639177000304.0,1639177000712.0,1639176993551.0,0.0,0.0,2.0,Mixed,19.0,Speed_Accuracy,9000.0
MainBlock,5b060d9e68eff50001d1a2c1:TSS_DDL_092921,BLUE,green,incongruent,green,1.0,694.0,8.0,,1639177001218.0,1639177001912.0,1639176993551.0,0.0,0.0,2.0,Mixed,19.0,Speed_Accuracy,9000.0
MainBlock,5b060d9e68eff50001d1a2c1:TSS_DDL_092921,,,,,,,,,,,,0.0,0.0,2.0,Mixed,19.0,Speed_Accuracy,9000.0
MainBlock,5b060d9e68eff50001d1a2c1:TSS_DDL_092921,GREEN,green,congruent,green,1.0,672.0,1.0,,1639177008586.0,1639177009258.0,1639177008586.0,0.0,0.0,2.0,Mixed,20.0,Speed_Accuracy,8000.0
MainBlock,5b060d9e68eff50001d1a2c1:TSS_DDL_092921,YELLOW,red,incongruent,red,1.0,584.0,2.0,,1639177009769.0,1639177010353.0,1639177008586.0,0.0,0.0,2.0,Mixed,20.0,Speed_Accuracy,8000.0
MainBlock,5b060d9e68eff50001d1a2c1:TSS_DDL_092921,GREEN,green,congruent,green,1.0,1024.0,3.0,,1639177010857.0,1639177011881.0,1639177008586.0,0.0,0.0,2.0,Mixed,20.0,Speed_Accuracy,8000.0
MainBlock,5b060d9e68eff50001d1a2c1:TSS_DDL_092921,BLUE,red,incongruent,yellow,0.0,600.0,4.0,,1639177012393.0,1639177012993.0,1639177008586.0,0.0,0.0,2.0,Mixed,20.0,Speed_Accuracy,8000.0
MainBlock,5b060d9e68eff50001d1a2c1:TSS_DDL_092921,GREEN,green,congruent,green,1.0,453.0,5.0,,1639177013500.0,1639177013953.0,1639177008586.0,0.0,0.0,2.0,Mixed,20.0,Speed_Accuracy,8000.0
MainBlock,5b060d9e68eff50001d1a2c1:TSS_DDL_092921,BLUE,yellow,incongruent,yellow,1.0,575.0,6.0,,1639177014459.0,1639177015034.0,1639177008586.0,0.0,0.0,2.0,Mixed,20.0,Speed_Accuracy,8000.0
MainBlock,5b060d9e68eff50001d1a2c1:TSS_DDL_092921,RED,red,congruent,yellow,0.0,613.0,7.0,,1639177015541.0,1639177016154.0,1639177008586.0,0.0,0.0,2.0,Mixed,20.0,Speed_Accuracy,8000.0
MainBlock,5b060d9e68eff50001d1a2c1:TSS_DDL_092921,,,,,,,,,,,,0.0,0.0,2.0,Mixed,20.0,Speed_Accuracy,8000.0
MainBlock,5b060d9e68eff50001d1a2c1:TSS_DDL_092921,GREEN,green,congruent,green,1.0,550.0,1.0,,1639177197061.0,1639177197611.0,1639177197060.0,0.0,0.0,3.0,Mixed,1.0,Accuracy,11000.0
MainBlock,5b060d9e68eff50001d1a2c1:TSS_DDL_092921,RED,yellow,incongruent,yellow,1.0,456.0,2.0,,1639177198116.0,1639177198572.0,1639177197060.0,0.0,0.0,3.0,Mixed,1.0,Accuracy,11000.0
MainBlock,5b060d9e68eff50001d1a2c1:TSS_DDL_092921,YELLOW,red,incongruent,red,1.0,484.0,3.0,,1639177199088.0,1639177199572.0,1639177197060.0,0.0,0.0,3.0,Mixed,1.0,Accuracy,11000.0
MainBlock,5b060d9e68eff50001d1a2c1:TSS_DDL_092921,GREEN,yellow,incongruent,yellow,1.0,762.0,4.0,,1639177200083.0,1639177200845.0,1639177197060.0,0.0,0.0,3.0,Mixed,1.0,Accuracy,11000.0
MainBlock,5b060d9e68eff50001d1a2c1:TSS_DDL_092921,BLUE,blue,congruent,blue,1.0,678.0,5.0,,1639177201358.0,1639177202036.0,1639177197060.0,0.0,0.0,3.0,Mixed,1.0,Accuracy,11000.0
MainBlock,5b060d9e68eff50001d1a2c1:TSS_DDL_092921,GREEN,green,congruent,green,1.0,395.0,6.0,,1639177202545.0,1639177202940.0,1639177197060.0,0.0,0.0,3.0,Mixed,1.0,Accuracy,11000.0
MainBlock,5b060d9e68eff50001d1a2c1:TSS_DDL_092921,YELLOW,red,incongruent,red,1.0,498.0,7.0,,1639177203450.0,1639177203948.0,1639177197060.0,0.0,0.0,3.0,Mixed,1.0,Accuracy,11000.0
MainBlock,5b060d9e68eff50001d1a2c1:TSS_DDL_092921,GREEN,green,congruent,green,1.0,571.0,8.0,,1639177204465.0,1639177205036.0,1639177197060.0,0.0,0.0,3.0,Mixed,1.0,Accuracy,11000.0
MainBlock,5b060d9e68eff50001d1a2c1:TSS_DDL_092921,RED,yellow,incongruent,yellow,1.0,456.0,9.0,,1639177205540.0,1639177205996.0,1639177197060.0,0.0,0.0,3.0,Mixed,1.0,Accuracy,11000.0
MainBlock,5b060d9e68eff50001d1a2c1:TSS_DDL_092921,YELLOW,green,incongruent,green,1.0,560.0,10.0,,1639177206500.0,1639177207060.0,1639177197060.0,0.0,0.0,3.0,Mixed,1.0,Accuracy,11000.0
MainBlock,5b060d9e68eff50001d1a2c1:TSS_DDL_092921,,,,,,,,,,,,0.0,0.0,3.0,Mixed,1.0,Accuracy,11000.0
MainBlock,5b060d9e68eff50001d1a2c1:TSS_DDL_092921,BLUE,green,incongruent,green,1.0,879.0,1.0,,1639177214079.0,1639177214958.0,1639177214079.0,0.0,0.0,3.0,Mixed,2.0,Speed,8000.0
MainBlock,5b060d9e68eff50001d1a2c1:TSS_DDL_092921,RED,red,congruent,red,1.0,543.0,2.0,,1639177215470.0,1639177216013.0,1639177214079.0,0.0,0.0,3.0,Mixed,2.0,Speed,8000.0
MainBlock,5b060d9e68eff50001d1a2c1:TSS_DDL_092921,BLUE,yellow,incongruent,yellow,1.0,3016.0,3.0,,1639177216526.0,1639177219542.0,1639177214079.0,0.0,0.0,3.0,Mixed,2.0,Speed,8000.0
MainBlock,5b060d9e68eff50001d1a2c1:TSS_DDL_092921,RED,green,incongruent,green,1.0,789.0,4.0,,1639177220057.0,1639177220846.0,1639177214079.0,0.0,0.0,3.0,Mixed,2.0,Speed,8000.0
MainBlock,5b060d9e68eff50001d1a2c1:TSS_DDL_092921,BLUE,blue,congruent,blue,1.0,330.0,5.0,,1639177221348.0,1639177221678.0,1639177214079.0,0.0,0.0,3.0,Mixed,2.0,Speed,8000.0
MainBlock,5b060d9e68eff50001d1a2c1:TSS_DDL_092921,,,,,,,,,,,,0.0,0.0,3.0,Mixed,2.0,Speed,8000.0
MainBlock,5b060d9e68eff50001d1a2c1:TSS_DDL_092921,YELLOW,yellow,congruent,yellow,1.0,786.0,1.0,,1639177227598.0,1639177228384.0,1639177227598.0,0.0,0.0,3.0,Mixed,3.0,Speed,11000.0
MainBlock,5b060d9e68eff50001d1a2c1:TSS_DDL_092921,RED,blue,incongruent,blue,1.0,613.0,2.0,,1639177228890.0,1639177229503.0,1639177227598.0,0.0,0.0,3.0,Mixed,3.0,Speed,11000.0
MainBlock,5b060d9e68eff50001d1a2c1:TSS_DDL_092921,YELLOW,green,incongruent,green,1.0,455.0,3.0,,1639177230016.0,1639177230471.0,1639177227598.0,0.0,0.0,3.0,Mixed,3.0,Speed,11000.0
MainBlock,5b060d9e68eff50001d1a2c1:TSS_DDL_092921,RED,red,congruent,red,1.0,510.0,4.0,,1639177230985.0,1639177231495.0,1639177227598.0,0.0,0.0,3.0,Mixed,3.0,Speed,11000.0
MainBlock,5b060d9e68eff50001d1a2c1:TSS_DDL_092921,GREEN,yellow,incongruent,yellow,1.0,324.0,5.0,,1639177232003.0,1639177232327.0,1639177227598.0,0.0,0.0,3.0,Mixed,3.0,Speed,11000.0
MainBlock,5b060d9e68eff50001d1a2c1:TSS_DDL_092921,BLUE,green,incongruent,green,1.0,406.0,6.0,,1639177232842.0,1639177233248.0,1639177227598.0,0.0,0.0,3.0,Mixed,3.0,Speed,11000.0
MainBlock,5b060d9e68eff50001d1a2c1:TSS_DDL_092921,GREEN,yellow,incongruent,yellow,1.0,567.0,7.0,,1639177233760.0,1639177234327.0,1639177227598.0,0.0,0.0,3.0,Mixed,3.0,Speed,11000.0
MainBlock,5b060d9e68eff50001d1a2c1:TSS_DDL_092921,RED,red,congruent,red,1.0,400.0,8.0,,1639177234831.0,1639177235231.0,1639177227598.0,0.0,0.0,3.0,Mixed,3.0,Speed,11000.0
MainBlock,5b060d9e68eff50001d1a2c1:TSS_DDL_092921,YELLOW,yellow,congruent,yellow,1.0,380.0,9.0,,1639177235747.0,1639177236127.0,1639177227598.0,0.0,0.0,3.0,Mixed,3.0,Speed,11000.0
MainBlock,5b060d9e68eff50001d1a2c1:TSS_DDL_092921,BLUE,green,incongruent,blue,0.0,484.0,10.0,,1639177236635.0,1639177237119.0,1639177227598.0,0.0,0.0,3.0,Mixed,3.0,Speed,11000.0
MainBlock,5b060d9e68eff50001d1a2c1:TSS_DDL_092921,GREEN,blue,incongruent,blue,1.0,644.0,11.0,,1639177237627.0,1639177238271.0,1639177227598.0,0.0,0.0,3.0,Mixed,3.0,Speed,11000.0
MainBlock,5b060d9e68eff50001d1a2c1:TSS_DDL_092921,,,,,,,,,,,,0.0,0.0,3.0,Mixed,3.0,Speed,11000.0
MainBlock,5b060d9e68eff50001d1a2c1:TSS_DDL_092921,RED,red,congruent,yellow,0.0,1670.0,1.0,,1639177244131.0,1639177245801.0,1639177244130.0,0.0,0.0,3.0,Mixed,4.0,Speed,9000.0
MainBlock,5b060d9e68eff50001d1a2c1:TSS_DDL_092921,YELLOW,green,incongruent,green,1.0,501.0,2.0,,1639177246315.0,1639177246816.0,1639177244130.0,0.0,0.0,3.0,Mixed,4.0,Speed,9000.0
MainBlock,5b060d9e68eff50001d1a2c1:TSS_DDL_092921,RED,blue,incongruent,blue,1.0,441.0,3.0,,1639177247327.0,1639177247768.0,1639177244130.0,0.0,0.0,3.0,Mixed,4.0,Speed,9000.0
MainBlock,5b060d9e68eff50001d1a2c1:TSS_DDL_092921,GREEN,green,congruent,green,1.0,640.0,4.0,,1639177248280.0,1639177248920.0,1639177244130.0,0.0,0.0,3.0,Mixed,4.0,Speed,9000.0
MainBlock,5b060d9e68eff50001d1a2c1:TSS_DDL_092921,YELLOW,yellow,congruent,yellow,1.0,355.0,5.0,,1639177249429.0,1639177249784.0,1639177244130.0,0.0,0.0,3.0,Mixed,4.0,Speed,9000.0
MainBlock,5b060d9e68eff50001d1a2c1:TSS_DDL_092921,BLUE,green,incongruent,green,1.0,534.0,6.0,,1639177250298.0,1639177250833.0,1639177244130.0,0.0,0.0,3.0,Mixed,4.0,Speed,9000.0
MainBlock,5b060d9e68eff50001d1a2c1:TSS_DDL_092921,GREEN,red,incongruent,red,1.0,731.0,7.0,,1639177251342.0,1639177252073.0,1639177244130.0,0.0,0.0,3.0,Mixed,4.0,Speed,9000.0
MainBlock,5b060d9e68eff50001d1a2c1:TSS_DDL_092921,RED,green,incongruent,green,1.0,502.0,8.0,,1639177252587.0,1639177253089.0,1639177244130.0,0.0,0.0,3.0,Mixed,4.0,Speed,9000.0
MainBlock,5b060d9e68eff50001d1a2c1:TSS_DDL_092921,,,,,,,,,,,,0.0,0.0,3.0,Mixed,4.0,Speed,9000.0
MainBlock,5b060d9e68eff50001d1a2c1:TSS_DDL_092921,BLUE,blue,congruent,blue,1.0,598.0,1.0,,1639177259140.0,1639177259738.0,1639177259140.0,0.0,0.0,3.0,Mixed,5.0,Speed_Accuracy,8000.0
MainBlock,5b060d9e68eff50001d1a2c1:TSS_DDL_092921,GREEN,yellow,incongruent,yellow,1.0,572.0,2.0,,1639177260246.0,1639177260818.0,1639177259140.0,0.0,0.0,3.0,Mixed,5.0,Speed_Accuracy,8000.0
MainBlock,5b060d9e68eff50001d1a2c1:TSS_DDL_092921,YELLOW,blue,incongruent,blue,1.0,648.0,3.0,,1639177261322.0,1639177261970.0,1639177259140.0,0.0,0.0,3.0,Mixed,5.0,Speed_Accuracy,8000.0
MainBlock,5b060d9e68eff50001d1a2c1:TSS_DDL_092921,RED,red,congruent,red,1.0,562.0,4.0,,1639177262480.0,1639177263042.0,1639177259140.0,0.0,0.0,3.0,Mixed,5.0,Speed_Accuracy,8000.0
MainBlock,5b060d9e68eff50001d1a2c1:TSS_DDL_092921,BLUE,green,incongruent,green,1.0,535.0,5.0,,1639177263555.0,1639177264090.0,1639177259140.0,0.0,0.0,3.0,Mixed,5.0,Speed_Accuracy,8000.0
MainBlock,5b060d9e68eff50001d1a2c1:TSS_DDL_092921,YELLOW,blue,incongruent,blue,1.0,570.0,6.0,,1639177264592.0,1639177265162.0,1639177259140.0,0.0,0.0,3.0,Mixed,5.0,Speed_Accuracy,8000.0
MainBlock,5b060d9e68eff50001d1a2c1:TSS_DDL_092921,GREEN,green,congruent,green,1.0,449.0,7.0,,1639177265673.0,1639177266122.0,1639177259140.0,0.0,0.0,3.0,Mixed,5.0,Speed_Accuracy,8000.0
MainBlock,5b060d9e68eff50001d1a2c1:TSS_DDL_092921,BLUE,blue,congruent,blue,1.0,420.0,8.0,,1639177266638.0,1639177267058.0,1639177259140.0,0.0,0.0,3.0,Mixed,5.0,Speed_Accuracy,8000.0
MainBlock,5b060d9e68eff50001d1a2c1:TSS_DDL_092921,,,,,,,,,,,,0.0,0.0,3.0,Mixed,5.0,Speed_Accuracy,8000.0
MainBlock,5b060d9e68eff50001d1a2c1:TSS_DDL_092921,RED,red,congruent,red,1.0,4142.0,1.0,,1639177273166.0,1639177277308.0,1639177273165.0,0.0,0.0,3.0,Mixed,6.0,Speed_Accuracy,12000.0
MainBlock,5b060d9e68eff50001d1a2c1:TSS_DDL_092921,BLUE,green,incongruent,green,1.0,582.0,2.0,,1639177277821.0,1639177278403.0,1639177273165.0,0.0,0.0,3.0,Mixed,6.0,Speed_Accuracy,12000.0
MainBlock,5b060d9e68eff50001d1a2c1:TSS_DDL_092921,RED,red,congruent,green,0.0,416.0,3.0,,1639177278907.0,1639177279323.0,1639177273165.0,0.0,0.0,3.0,Mixed,6.0,Speed_Accuracy,12000.0
MainBlock,5b060d9e68eff50001d1a2c1:TSS_DDL_092921,GREEN,yellow,incongruent,yellow,1.0,460.0,4.0,,1639177279839.0,1639177280299.0,1639177273165.0,0.0,0.0,3.0,Mixed,6.0,Speed_Accuracy,12000.0
MainBlock,5b060d9e68eff50001d1a2c1:TSS_DDL_092921,BLUE,blue,congruent,blue,1.0,488.0,5.0,,1639177280804.0,1639177281292.0,1639177273165.0,0.0,0.0,3.0,Mixed,6.0,Speed_Accuracy,12000.0
MainBlock,5b060d9e68eff50001d1a2c1:TSS_DDL_092921,RED,yellow,incongruent,yellow,1.0,738.0,6.0,,1639177281802.0,1639177282540.0,1639177273165.0,0.0,0.0,3.0,Mixed,6.0,Speed_Accuracy,12000.0
MainBlock,5b060d9e68eff50001d1a2c1:TSS_DDL_092921,BLUE,red,incongruent,red,1.0,538.0,7.0,,1639177283042.0,1639177283580.0,1639177273165.0,0.0,0.0,3.0,Mixed,6.0,Speed_Accuracy,12000.0
MainBlock,5b060d9e68eff50001d1a2c1:TSS_DDL_092921,GREEN,green,congruent,green,1.0,652.0,8.0,,1639177284096.0,1639177284748.0,1639177273165.0,0.0,0.0,3.0,Mixed,6.0,Speed_Accuracy,12000.0
MainBlock,5b060d9e68eff50001d1a2c1:TSS_DDL_092921,,,,,,,,,,,,0.0,0.0,3.0,Mixed,6.0,Speed_Accuracy,12000.0
MainBlock,5b060d9e68eff50001d1a2c1:TSS_DDL_092921,RED,blue,incongruent,green,0.0,1108.0,1.0,,1639177290177.0,1639177291285.0,1639177290177.0,0.0,0.0,3.0,Mixed,7.0,Accuracy,10000.0
MainBlock,5b060d9e68eff50001d1a2c1:TSS_DDL_092921,GREEN,green,congruent,green,1.0,504.0,2.0,,1639177291797.0,1639177292301.0,1639177290177.0,0.0,0.0,3.0,Mixed,7.0,Accuracy,10000.0
MainBlock,5b060d9e68eff50001d1a2c1:TSS_DDL_092921,RED,yellow,incongruent,yellow,1.0,509.0,3.0,,1639177292808.0,1639177293317.0,1639177290177.0,0.0,0.0,3.0,Mixed,7.0,Accuracy,10000.0
MainBlock,5b060d9e68eff50001d1a2c1:TSS_DDL_092921,BLUE,red,incongruent,red,1.0,400.0,4.0,,1639177293821.0,1639177294221.0,1639177290177.0,0.0,0.0,3.0,Mixed,7.0,Accuracy,10000.0
MainBlock,5b060d9e68eff50001d1a2c1:TSS_DDL_092921,YELLOW,yellow,congruent,yellow,1.0,445.0,5.0,,1639177294728.0,1639177295173.0,1639177290177.0,0.0,0.0,3.0,Mixed,7.0,Accuracy,10000.0
MainBlock,5b060d9e68eff50001d1a2c1:TSS_DDL_092921,BLUE,blue,congruent,blue,1.0,496.0,6.0,,1639177295677.0,1639177296173.0,1639177290177.0,0.0,0.0,3.0,Mixed,7.0,Accuracy,10000.0
MainBlock,5b060d9e68eff50001d1a2c1:TSS_DDL_092921,YELLOW,yellow,congruent,yellow,1.0,484.0,7.0,,1639177296682.0,1639177297166.0,1639177290177.0,0.0,0.0,3.0,Mixed,7.0,Accuracy,10000.0
MainBlock,5b060d9e68eff50001d1a2c1:TSS_DDL_092921,GREEN,blue,incongruent,blue,1.0,535.0,8.0,,1639177297670.0,1639177298205.0,1639177290177.0,0.0,0.0,3.0,Mixed,7.0,Accuracy,10000.0
MainBlock,5b060d9e68eff50001d1a2c1:TSS_DDL_092921,YELLOW,yellow,congruent,yellow,1.0,420.0,9.0,,1639177298714.0,1639177299134.0,1639177290177.0,0.0,0.0,3.0,Mixed,7.0,Accuracy,10000.0
MainBlock,5b060d9e68eff50001d1a2c1:TSS_DDL_092921,RED,green,incongruent,green,1.0,524.0,10.0,,1639177299635.0,1639177300159.0,1639177290177.0,0.0,0.0,3.0,Mixed,7.0,Accuracy,10000.0
MainBlock,5b060d9e68eff50001d1a2c1:TSS_DDL_092921,,,,,,,,,,,,0.0,0.0,3.0,Mixed,7.0,Accuracy,10000.0
MainBlock,5b060d9e68eff50001d1a2c1:TSS_DDL_092921,YELLOW,green,incongruent,red,0.0,796.0,1.0,,1639177305210.0,1639177306006.0,1639177305210.0,0.0,0.0,3.0,Mixed,8.0,Accuracy,8000.0
MainBlock,5b060d9e68eff50001d1a2c1:TSS_DDL_092921,BLUE,blue,congruent,blue,1.0,727.0,2.0,,1639177306511.0,1639177307238.0,1639177305210.0,0.0,0.0,3.0,Mixed,8.0,Accuracy,8000.0
MainBlock,5b060d9e68eff50001d1a2c1:TSS_DDL_092921,RED,yellow,incongruent,yellow,1.0,477.0,3.0,,1639177307745.0,1639177308222.0,1639177305210.0,0.0,0.0,3.0,Mixed,8.0,Accuracy,8000.0
MainBlock,5b060d9e68eff50001d1a2c1:TSS_DDL_092921,BLUE,blue,congruent,blue,1.0,490.0,4.0,,1639177308733.0,1639177309223.0,1639177305210.0,0.0,0.0,3.0,Mixed,8.0,Accuracy,8000.0
MainBlock,5b060d9e68eff50001d1a2c1:TSS_DDL_092921,YELLOW,yellow,congruent,yellow,1.0,370.0,5.0,,1639177309733.0,1639177310103.0,1639177305210.0,0.0,0.0,3.0,Mixed,8.0,Accuracy,8000.0
MainBlock,5b060d9e68eff50001d1a2c1:TSS_DDL_092921,GREEN,red,incongruent,red,1.0,406.0,6.0,,1639177310618.0,1639177311024.0,1639177305210.0,0.0,0.0,3.0,Mixed,8.0,Accuracy,8000.0
MainBlock,5b060d9e68eff50001d1a2c1:TSS_DDL_092921,YELLOW,yellow,congruent,yellow,1.0,830.0,7.0,,1639177311529.0,1639177312359.0,1639177305210.0,0.0,0.0,3.0,Mixed,8.0,Accuracy,8000.0
MainBlock,5b060d9e68eff50001d1a2c1:TSS_DDL_092921,,,,,,,,,,,,0.0,0.0,3.0,Mixed,8.0,Accuracy,8000.0
MainBlock,5b060d9e68eff50001d1a2c1:TSS_DDL_092921,BLUE,yellow,incongruent,yellow,1.0,797.0,1.0,,1639177319227.0,1639177320024.0,1639177319226.0,0.0,0.0,3.0,Mixed,9.0,Speed,12000.0
MainBlock,5b060d9e68eff50001d1a2c1:TSS_DDL_092921,GREEN,green,congruent,green,1.0,485.0,2.0,,1639177320539.0,1639177321024.0,1639177319226.0,0.0,0.0,3.0,Mixed,9.0,Speed,12000.0
MainBlock,5b060d9e68eff50001d1a2c1:TSS_DDL_092921,BLUE,yellow,incongruent,yellow,1.0,352.0,3.0,,1639177321529.0,1639177321881.0,1639177319226.0,0.0,0.0,3.0,Mixed,9.0,Speed,12000.0
MainBlock,5b060d9e68eff50001d1a2c1:TSS_DDL_092921,RED,red,congruent,red,1.0,469.0,4.0,,1639177322396.0,1639177322865.0,1639177319226.0,0.0,0.0,3.0,Mixed,9.0,Speed,12000.0
MainBlock,5b060d9e68eff50001d1a2c1:TSS_DDL_092921,BLUE,yellow,incongruent,yellow,1.0,320.0,5.0,,1639177323372.0,1639177323692.0,1639177319226.0,0.0,0.0,3.0,Mixed,9.0,Speed,12000.0
MainBlock,5b060d9e68eff50001d1a2c1:TSS_DDL_092921,RED,green,incongruent,green,1.0,366.0,6.0,,1639177324194.0,1639177324560.0,1639177319226.0,0.0,0.0,3.0,Mixed,9.0,Speed,12000.0
MainBlock,5b060d9e68eff50001d1a2c1:TSS_DDL_092921,YELLOW,yellow,congruent,yellow,1.0,424.0,7.0,,1639177325073.0,1639177325497.0,1639177319226.0,0.0,0.0,3.0,Mixed,9.0,Speed,12000.0
MainBlock,5b060d9e68eff50001d1a2c1:TSS_DDL_092921,GREEN,green,congruent,green,1.0,379.0,8.0,,1639177326006.0,1639177326385.0,1639177319226.0,0.0,0.0,3.0,Mixed,9.0,Speed,12000.0
MainBlock,5b060d9e68eff50001d1a2c1:TSS_DDL_092921,BLUE,blue,congruent,blue,1.0,487.0,9.0,,1639177326890.0,1639177327377.0,1639177319226.0,0.0,0.0,3.0,Mixed,9.0,Speed,12000.0
MainBlock,5b060d9e68eff50001d1a2c1:TSS_DDL_092921,YELLOW,green,incongruent,yellow,0.0,517.0,10.0,,1639177327892.0,1639177328409.0,1639177319226.0,0.0,0.0,3.0,Mixed,9.0,Speed,12000.0
MainBlock,5b060d9e68eff50001d1a2c1:TSS_DDL_092921,RED,yellow,incongruent,yellow,1.0,464.0,11.0,,1639177328921.0,1639177329385.0,1639177319226.0,0.0,0.0,3.0,Mixed,9.0,Speed,12000.0
MainBlock,5b060d9e68eff50001d1a2c1:TSS_DDL_092921,GREEN,green,congruent,green,1.0,415.0,12.0,,1639177329898.0,1639177330313.0,1639177319226.0,0.0,0.0,3.0,Mixed,9.0,Speed,12000.0
MainBlock,5b060d9e68eff50001d1a2c1:TSS_DDL_092921,,,,,,,,,,,,0.0,0.0,3.0,Mixed,9.0,Speed,12000.0
MainBlock,5b060d9e68eff50001d1a2c1:TSS_DDL_092921,YELLOW,red,incongruent,red,1.0,819.0,1.0,,1639177336264.0,1639177337083.0,1639177336263.0,0.0,0.0,3.0,Mixed,10.0,Speed_Accuracy,8000.0
MainBlock,5b060d9e68eff50001d1a2c1:TSS_DDL_092921,GREEN,green,congruent,green,1.0,503.0,2.0,,1639177337595.0,1639177338098.0,1639177336263.0,0.0,0.0,3.0,Mixed,10.0,Speed_Accuracy,8000.0
MainBlock,5b060d9e68eff50001d1a2c1:TSS_DDL_092921,RED,blue,incongruent,blue,1.0,528.0,3.0,,1639177338610.0,1639177339138.0,1639177336263.0,0.0,0.0,3.0,Mixed,10.0,Speed_Accuracy,8000.0
MainBlock,5b060d9e68eff50001d1a2c1:TSS_DDL_092921,GREEN,green,congruent,green,1.0,619.0,4.0,,1639177339655.0,1639177340274.0,1639177336263.0,0.0,0.0,3.0,Mixed,10.0,Speed_Accuracy,8000.0
MainBlock,5b060d9e68eff50001d1a2c1:TSS_DDL_092921,YELLOW,red,incongruent,red,1.0,543.0,5.0,,1639177340779.0,1639177341322.0,1639177336263.0,0.0,0.0,3.0,Mixed,10.0,Speed_Accuracy,8000.0
MainBlock,5b060d9e68eff50001d1a2c1:TSS_DDL_092921,RED,yellow,incongruent,yellow,1.0,386.0,6.0,,1639177341824.0,1639177342210.0,1639177336263.0,0.0,0.0,3.0,Mixed,10.0,Speed_Accuracy,8000.0
MainBlock,5b060d9e68eff50001d1a2c1:TSS_DDL_092921,YELLOW,green,incongruent,green,1.0,449.0,7.0,,1639177342721.0,1639177343170.0,1639177336263.0,0.0,0.0,3.0,Mixed,10.0,Speed_Accuracy,8000.0
MainBlock,5b060d9e68eff50001d1a2c1:TSS_DDL_092921,BLUE,blue,congruent,blue,1.0,411.0,8.0,,1639177343672.0,1639177344083.0,1639177336263.0,0.0,0.0,3.0,Mixed,10.0,Speed_Accuracy,8000.0
MainBlock,5b060d9e68eff50001d1a2c1:TSS_DDL_092921,,,,,,,,,,,,0.0,0.0,3.0,Mixed,10.0,Speed_Accuracy,8000.0
MainBlock,5b060d9e68eff50001d1a2c1:TSS_DDL_092921,BLUE,yellow,incongruent,yellow,1.0,741.0,1.0,,1639177349279.0,1639177350020.0,1639177349279.0,0.0,0.0,3.0,Mixed,11.0,Speed_Accuracy,11000.0
MainBlock,5b060d9e68eff50001d1a2c1:TSS_DDL_092921,GREEN,green,congruent,green,1.0,450.0,2.0,,1639177350529.0,1639177350979.0,1639177349279.0,0.0,0.0,3.0,Mixed,11.0,Speed_Accuracy,11000.0
MainBlock,5b060d9e68eff50001d1a2c1:TSS_DDL_092921,RED,blue,incongruent,blue,1.0,620.0,3.0,,1639177351487.0,1639177352107.0,1639177349279.0,0.0,0.0,3.0,Mixed,11.0,Speed_Accuracy,11000.0
MainBlock,5b060d9e68eff50001d1a2c1:TSS_DDL_092921,GREEN,green,congruent,green,1.0,496.0,4.0,,1639177352612.0,1639177353108.0,1639177349279.0,0.0,0.0,3.0,Mixed,11.0,Speed_Accuracy,11000.0
MainBlock,5b060d9e68eff50001d1a2c1:TSS_DDL_092921,YELLOW,blue,incongruent,blue,1.0,560.0,5.0,,1639177353612.0,1639177354172.0,1639177349279.0,0.0,0.0,3.0,Mixed,11.0,Speed_Accuracy,11000.0
MainBlock,5b060d9e68eff50001d1a2c1:TSS_DDL_092921,BLUE,red,incongruent,red,1.0,538.0,6.0,,1639177354682.0,1639177355220.0,1639177349279.0,0.0,0.0,3.0,Mixed,11.0,Speed_Accuracy,11000.0
MainBlock,5b060d9e68eff50001d1a2c1:TSS_DDL_092921,RED,yellow,incongruent,yellow,1.0,583.0,7.0,,1639177355725.0,1639177356308.0,1639177349279.0,0.0,0.0,3.0,Mixed,11.0,Speed_Accuracy,11000.0
MainBlock,5b060d9e68eff50001d1a2c1:TSS_DDL_092921,BLUE,blue,congruent,green,0.0,513.0,8.0,,1639177356811.0,1639177357324.0,1639177349279.0,0.0,0.0,3.0,Mixed,11.0,Speed_Accuracy,11000.0
MainBlock,5b060d9e68eff50001d1a2c1:TSS_DDL_092921,GREEN,yellow,incongruent,yellow,1.0,601.0,9.0,,1639177357827.0,1639177358428.0,1639177349279.0,0.0,0.0,3.0,Mixed,11.0,Speed_Accuracy,11000.0
MainBlock,5b060d9e68eff50001d1a2c1:TSS_DDL_092921,BLUE,blue,congruent,yellow,0.0,424.0,10.0,,1639177358932.0,1639177359356.0,1639177349279.0,0.0,0.0,3.0,Mixed,11.0,Speed_Accuracy,11000.0
MainBlock,5b060d9e68eff50001d1a2c1:TSS_DDL_092921,,,,,,,,,,,,0.0,0.0,3.0,Mixed,11.0,Speed_Accuracy,11000.0
MainBlock,5b060d9e68eff50001d1a2c1:TSS_DDL_092921,RED,red,congruent,red,1.0,705.0,1.0,,1639177365796.0,1639177366501.0,1639177365795.0,0.0,0.0,3.0,Mixed,12.0,Accuracy,8000.0
MainBlock,5b060d9e68eff50001d1a2c1:TSS_DDL_092921,YELLOW,blue,incongruent,blue,1.0,827.0,2.0,,1639177367010.0,1639177367837.0,1639177365795.0,0.0,0.0,3.0,Mixed,12.0,Accuracy,8000.0
MainBlock,5b060d9e68eff50001d1a2c1:TSS_DDL_092921,BLUE,yellow,incongruent,yellow,1.0,518.0,3.0,,1639177368343.0,1639177368861.0,1639177365795.0,0.0,0.0,3.0,Mixed,12.0,Accuracy,8000.0
MainBlock,5b060d9e68eff50001d1a2c1:TSS_DDL_092921,GREEN,blue,incongruent,blue,1.0,618.0,4.0,,1639177369363.0,1639177369981.0,1639177365795.0,0.0,0.0,3.0,Mixed,12.0,Accuracy,8000.0
MainBlock,5b060d9e68eff50001d1a2c1:TSS_DDL_092921,RED,red,congruent,red,1.0,741.0,5.0,,1639177370489.0,1639177371230.0,1639177365795.0,0.0,0.0,3.0,Mixed,12.0,Accuracy,8000.0
MainBlock,5b060d9e68eff50001d1a2c1:TSS_DDL_092921,BLUE,green,incongruent,green,1.0,836.0,6.0,,1639177371737.0,1639177372573.0,1639177365795.0,0.0,0.0,3.0,Mixed,12.0,Accuracy,8000.0
MainBlock,5b060d9e68eff50001d1a2c1:TSS_DDL_092921,RED,red,congruent,yellow,0.0,487.0,7.0,,1639177373078.0,1639177373565.0,1639177365795.0,0.0,0.0,3.0,Mixed,12.0,Accuracy,8000.0
MainBlock,5b060d9e68eff50001d1a2c1:TSS_DDL_092921,,,,,,,,,,,,0.0,0.0,3.0,Mixed,12.0,Accuracy,8000.0
MainBlock,5b060d9e68eff50001d1a2c1:TSS_DDL_092921,RED,red,congruent,red,1.0,552.0,1.0,,1639177378822.0,1639177379374.0,1639177378822.0,0.0,0.0,3.0,Mixed,13.0,Accuracy,9000.0
MainBlock,5b060d9e68eff50001d1a2c1:TSS_DDL_092921,YELLOW,green,incongruent,green,1.0,652.0,2.0,,1639177379882.0,1639177380534.0,1639177378822.0,0.0,0.0,3.0,Mixed,13.0,Accuracy,9000.0
MainBlock,5b060d9e68eff50001d1a2c1:TSS_DDL_092921,BLUE,blue,congruent,blue,1.0,522.0,3.0,,1639177381037.0,1639177381559.0,1639177378822.0,0.0,0.0,3.0,Mixed,13.0,Accuracy,9000.0
MainBlock,5b060d9e68eff50001d1a2c1:TSS_DDL_092921,GREEN,yellow,incongruent,yellow,1.0,459.0,4.0,,1639177382068.0,1639177382527.0,1639177378822.0,0.0,0.0,3.0,Mixed,13.0,Accuracy,9000.0
MainBlock,5b060d9e68eff50001d1a2c1:TSS_DDL_092921,RED,red,congruent,red,1.0,501.0,5.0,,1639177383042.0,1639177383543.0,1639177378822.0,0.0,0.0,3.0,Mixed,13.0,Accuracy,9000.0
MainBlock,5b060d9e68eff50001d1a2c1:TSS_DDL_092921,YELLOW,green,incongruent,green,1.0,498.0,6.0,,1639177384053.0,1639177384551.0,1639177378822.0,0.0,0.0,3.0,Mixed,13.0,Accuracy,9000.0
MainBlock,5b060d9e68eff50001d1a2c1:TSS_DDL_092921,GREEN,blue,incongruent,blue,1.0,518.0,7.0,,1639177385057.0,1639177385575.0,1639177378822.0,0.0,0.0,3.0,Mixed,13.0,Accuracy,9000.0
MainBlock,5b060d9e68eff50001d1a2c1:TSS_DDL_092921,RED,red,congruent,yellow,0.0,464.0,8.0,,1639177386087.0,1639177386551.0,1639177378822.0,0.0,0.0,3.0,Mixed,13.0,Accuracy,9000.0
MainBlock,5b060d9e68eff50001d1a2c1:TSS_DDL_092921,YELLOW,blue,incongruent,blue,1.0,727.0,9.0,,1639177387056.0,1639177387783.0,1639177378822.0,0.0,0.0,3.0,Mixed,13.0,Accuracy,9000.0
MainBlock,5b060d9e68eff50001d1a2c1:TSS_DDL_092921,,,,,,,,,,,,0.0,0.0,3.0,Mixed,13.0,Accuracy,9000.0
MainBlock,5b060d9e68eff50001d1a2c1:TSS_DDL_092921,RED,red,congruent,red,1.0,646.0,1.0,,1639177393346.0,1639177393992.0,1639177393345.0,0.0,0.0,3.0,Mixed,14.0,Speed_Accuracy,9000.0
MainBlock,5b060d9e68eff50001d1a2c1:TSS_DDL_092921,BLUE,green,incongruent,blue,0.0,631.0,2.0,,1639177394505.0,1639177395136.0,1639177393345.0,0.0,0.0,3.0,Mixed,14.0,Speed_Accuracy,9000.0
MainBlock,5b060d9e68eff50001d1a2c1:TSS_DDL_092921,YELLOW,red,incongruent,red,1.0,577.0,3.0,,1639177395639.0,1639177396216.0,1639177393345.0,0.0,0.0,3.0,Mixed,14.0,Speed_Accuracy,9000.0
MainBlock,5b060d9e68eff50001d1a2c1:TSS_DDL_092921,GREEN,blue,incongruent,blue,1.0,502.0,4.0,,1639177396730.0,1639177397232.0,1639177393345.0,0.0,0.0,3.0,Mixed,14.0,Speed_Accuracy,9000.0
MainBlock,5b060d9e68eff50001d1a2c1:TSS_DDL_092921,RED,red,congruent,red,1.0,450.0,5.0,,1639177397734.0,1639177398184.0,1639177393345.0,0.0,0.0,3.0,Mixed,14.0,Speed_Accuracy,9000.0
MainBlock,5b060d9e68eff50001d1a2c1:TSS_DDL_092921,YELLOW,blue,incongruent,blue,1.0,774.0,6.0,,1639177398698.0,1639177399472.0,1639177393345.0,0.0,0.0,3.0,Mixed,14.0,Speed_Accuracy,9000.0
MainBlock,5b060d9e68eff50001d1a2c1:TSS_DDL_092921,GREEN,green,congruent,green,1.0,460.0,7.0,,1639177399988.0,1639177400448.0,1639177393345.0,0.0,0.0,3.0,Mixed,14.0,Speed_Accuracy,9000.0
MainBlock,5b060d9e68eff50001d1a2c1:TSS_DDL_092921,RED,red,congruent,red,1.0,445.0,8.0,,1639177400955.0,1639177401400.0,1639177393345.0,0.0,0.0,3.0,Mixed,14.0,Speed_Accuracy,9000.0
MainBlock,5b060d9e68eff50001d1a2c1:TSS_DDL_092921,,,,,,,,,,,,0.0,0.0,3.0,Mixed,14.0,Speed_Accuracy,9000.0
MainBlock,5b060d9e68eff50001d1a2c1:TSS_DDL_092921,GREEN,green,congruent,green,1.0,714.0,1.0,,1639177408392.0,1639177409106.0,1639177408392.0,0.0,0.0,3.0,Mixed,15.0,Speed_Accuracy,10000.0
MainBlock,5b060d9e68eff50001d1a2c1:TSS_DDL_092921,BLUE,yellow,incongruent,yellow,1.0,547.0,2.0,,1639177409622.0,1639177410169.0,1639177408392.0,0.0,0.0,3.0,Mixed,15.0,Speed_Accuracy,10000.0
MainBlock,5b060d9e68eff50001d1a2c1:TSS_DDL_092921,RED,blue,incongruent,blue,1.0,441.0,3.0,,1639177410673.0,1639177411114.0,1639177408392.0,0.0,0.0,3.0,Mixed,15.0,Speed_Accuracy,10000.0
MainBlock,5b060d9e68eff50001d1a2c1:TSS_DDL_092921,GREEN,yellow,incongruent,yellow,1.0,548.0,4.0,,1639177411621.0,1639177412169.0,1639177408392.0,0.0,0.0,3.0,Mixed,15.0,Speed_Accuracy,10000.0
MainBlock,5b060d9e68eff50001d1a2c1:TSS_DDL_092921,RED,red,congruent,red,1.0,456.0,5.0,,1639177412681.0,1639177413137.0,1639177408392.0,0.0,0.0,3.0,Mixed,15.0,Speed_Accuracy,10000.0
MainBlock,5b060d9e68eff50001d1a2c1:TSS_DDL_092921,GREEN,green,congruent,green,1.0,541.0,6.0,,1639177413645.0,1639177414186.0,1639177408392.0,0.0,0.0,3.0,Mixed,15.0,Speed_Accuracy,10000.0
MainBlock,5b060d9e68eff50001d1a2c1:TSS_DDL_092921,YELLOW,yellow,congruent,yellow,1.0,377.0,7.0,,1639177414689.0,1639177415066.0,1639177408392.0,0.0,0.0,3.0,Mixed,15.0,Speed_Accuracy,10000.0
MainBlock,5b060d9e68eff50001d1a2c1:TSS_DDL_092921,RED,blue,incongruent,red,0.0,563.0,8.0,,1639177415567.0,1639177416130.0,1639177408392.0,0.0,0.0,3.0,Mixed,15.0,Speed_Accuracy,10000.0
MainBlock,5b060d9e68eff50001d1a2c1:TSS_DDL_092921,GREEN,red,incongruent,red,1.0,560.0,9.0,,1639177416642.0,1639177417202.0,1639177408392.0,0.0,0.0,3.0,Mixed,15.0,Speed_Accuracy,10000.0
MainBlock,5b060d9e68eff50001d1a2c1:TSS_DDL_092921,,,,,,,,,,,,0.0,0.0,3.0,Mixed,15.0,Speed_Accuracy,10000.0
MainBlock,5b060d9e68eff50001d1a2c1:TSS_DDL_092921,RED,blue,incongruent,red,0.0,632.0,1.0,,1639177423908.0,1639177424540.0,1639177423908.0,0.0,0.0,3.0,Mixed,16.0,Accuracy,12000.0
MainBlock,5b060d9e68eff50001d1a2c1:TSS_DDL_092921,GREEN,green,congruent,green,1.0,611.0,2.0,,1639177425048.0,1639177425659.0,1639177423908.0,0.0,0.0,3.0,Mixed,16.0,Accuracy,12000.0
MainBlock,5b060d9e68eff50001d1a2c1:TSS_DDL_092921,RED,yellow,incongruent,yellow,1.0,491.0,3.0,,1639177426168.0,1639177426659.0,1639177423908.0,0.0,0.0,3.0,Mixed,16.0,Accuracy,12000.0
MainBlock,5b060d9e68eff50001d1a2c1:TSS_DDL_092921,BLUE,blue,congruent,red,0.0,596.0,4.0,,1639177427167.0,1639177427763.0,1639177423908.0,0.0,0.0,3.0,Mixed,16.0,Accuracy,12000.0
MainBlock,5b060d9e68eff50001d1a2c1:TSS_DDL_092921,GREEN,green,congruent,green,1.0,621.0,5.0,,1639177428270.0,1639177428891.0,1639177423908.0,0.0,0.0,3.0,Mixed,16.0,Accuracy,12000.0
MainBlock,5b060d9e68eff50001d1a2c1:TSS_DDL_092921,YELLOW,red,incongruent,red,1.0,635.0,6.0,,1639177429392.0,1639177430027.0,1639177423908.0,0.0,0.0,3.0,Mixed,16.0,Accuracy,12000.0
MainBlock,5b060d9e68eff50001d1a2c1:TSS_DDL_092921,GREEN,green,congruent,green,1.0,512.0,7.0,,1639177430531.0,1639177431043.0,1639177423908.0,0.0,0.0,3.0,Mixed,16.0,Accuracy,12000.0
MainBlock,5b060d9e68eff50001d1a2c1:TSS_DDL_092921,RED,yellow,incongruent,yellow,1.0,440.0,8.0,,1639177431547.0,1639177431987.0,1639177423908.0,0.0,0.0,3.0,Mixed,16.0,Accuracy,12000.0
MainBlock,5b060d9e68eff50001d1a2c1:TSS_DDL_092921,GREEN,blue,incongruent,blue,1.0,388.0,9.0,,1639177432503.0,1639177432891.0,1639177423908.0,0.0,0.0,3.0,Mixed,16.0,Accuracy,12000.0
MainBlock,5b060d9e68eff50001d1a2c1:TSS_DDL_092921,YELLOW,yellow,congruent,yellow,1.0,420.0,10.0,,1639177433407.0,1639177433827.0,1639177423908.0,0.0,0.0,3.0,Mixed,16.0,Accuracy,12000.0
MainBlock,5b060d9e68eff50001d1a2c1:TSS_DDL_092921,BLUE,green,incongruent,green,1.0,891.0,11.0,,1639177434338.0,1639177435229.0,1639177423908.0,0.0,0.0,3.0,Mixed,16.0,Accuracy,12000.0
MainBlock,5b060d9e68eff50001d1a2c1:TSS_DDL_092921,,,,,,,,,,,,0.0,0.0,3.0,Mixed,16.0,Accuracy,12000.0
MainBlock,5b060d9e68eff50001d1a2c1:TSS_DDL_092921,BLUE,green,incongruent,green,1.0,946.0,1.0,,1639177441946.0,1639177442892.0,1639177441946.0,0.0,0.0,3.0,Mixed,17.0,Accuracy,9000.0
MainBlock,5b060d9e68eff50001d1a2c1:TSS_DDL_092921,YELLOW,yellow,congruent,yellow,1.0,472.0,2.0,,1639177443404.0,1639177443876.0,1639177441946.0,0.0,0.0,3.0,Mixed,17.0,Accuracy,9000.0
MainBlock,5b060d9e68eff50001d1a2c1:TSS_DDL_092921,BLUE,blue,congruent,blue,1.0,484.0,3.0,,1639177444384.0,1639177444868.0,1639177441946.0,0.0,0.0,3.0,Mixed,17.0,Accuracy,9000.0
MainBlock,5b060d9e68eff50001d1a2c1:TSS_DDL_092921,GREEN,red,incongruent,red,1.0,648.0,4.0,,1639177445382.0,1639177446030.0,1639177441946.0,0.0,0.0,3.0,Mixed,17.0,Accuracy,9000.0
MainBlock,5b060d9e68eff50001d1a2c1:TSS_DDL_092921,RED,yellow,incongruent,yellow,1.0,503.0,5.0,,1639177446534.0,1639177447037.0,1639177441946.0,0.0,0.0,3.0,Mixed,17.0,Accuracy,9000.0
MainBlock,5b060d9e68eff50001d1a2c1:TSS_DDL_092921,YELLOW,red,incongruent,red,1.0,553.0,6.0,,1639177447540.0,1639177448093.0,1639177441946.0,0.0,0.0,3.0,Mixed,17.0,Accuracy,9000.0
MainBlock,5b060d9e68eff50001d1a2c1:TSS_DDL_092921,GREEN,yellow,incongruent,yellow,1.0,492.0,7.0,,1639177448609.0,1639177449101.0,1639177441946.0,0.0,0.0,3.0,Mixed,17.0,Accuracy,9000.0
MainBlock,5b060d9e68eff50001d1a2c1:TSS_DDL_092921,BLUE,blue,congruent,blue,1.0,472.0,8.0,,1639177449605.0,1639177450077.0,1639177441946.0,0.0,0.0,3.0,Mixed,17.0,Accuracy,9000.0
MainBlock,5b060d9e68eff50001d1a2c1:TSS_DDL_092921,,,,,,,,,,,,0.0,0.0,3.0,Mixed,17.0,Accuracy,9000.0
MainBlock,5b060d9e68eff50001d1a2c1:TSS_DDL_092921,RED,red,congruent,red,1.0,841.0,1.0,,1639177456462.0,1639177457303.0,1639177456462.0,0.0,0.0,3.0,Mixed,18.0,Speed_Accuracy,9000.0
MainBlock,5b060d9e68eff50001d1a2c1:TSS_DDL_092921,BLUE,yellow,incongruent,yellow,1.0,613.0,2.0,,1639177457809.0,1639177458422.0,1639177456462.0,0.0,0.0,3.0,Mixed,18.0,Speed_Accuracy,9000.0
MainBlock,5b060d9e68eff50001d1a2c1:TSS_DDL_092921,YELLOW,blue,incongruent,blue,1.0,550.0,3.0,,1639177458936.0,1639177459486.0,1639177456462.0,0.0,0.0,3.0,Mixed,18.0,Speed_Accuracy,9000.0
MainBlock,5b060d9e68eff50001d1a2c1:TSS_DDL_092921,GREEN,green,congruent,green,1.0,333.0,4.0,,1639177459993.0,1639177460326.0,1639177456462.0,0.0,0.0,3.0,Mixed,18.0,Speed_Accuracy,9000.0
MainBlock,5b060d9e68eff50001d1a2c1:TSS_DDL_092921,BLUE,blue,congruent,blue,1.0,469.0,5.0,,1639177460833.0,1639177461302.0,1639177456462.0,0.0,0.0,3.0,Mixed,18.0,Speed_Accuracy,9000.0
MainBlock,5b060d9e68eff50001d1a2c1:TSS_DDL_092921,GREEN,yellow,incongruent,yellow,1.0,493.0,6.0,,1639177461809.0,1639177462303.0,1639177456462.0,0.0,0.0,3.0,Mixed,18.0,Speed_Accuracy,9000.0
MainBlock,5b060d9e68eff50001d1a2c1:TSS_DDL_092921,YELLOW,red,incongruent,red,1.0,319.0,7.0,,1639177462807.0,1639177463126.0,1639177456462.0,0.0,0.0,3.0,Mixed,18.0,Speed_Accuracy,9000.0
MainBlock,5b060d9e68eff50001d1a2c1:TSS_DDL_092921,BLUE,blue,congruent,blue,1.0,643.0,8.0,,1639177463628.0,1639177464271.0,1639177456462.0,0.0,0.0,3.0,Mixed,18.0,Speed_Accuracy,9000.0
MainBlock,5b060d9e68eff50001d1a2c1:TSS_DDL_092921,YELLOW,yellow,congruent,yellow,1.0,470.0,9.0,,1639177464785.0,1639177465255.0,1639177456462.0,0.0,0.0,3.0,Mixed,18.0,Speed_Accuracy,9000.0
MainBlock,5b060d9e68eff50001d1a2c1:TSS_DDL_092921,,,,,,,,,,,,0.0,0.0,3.0,Mixed,18.0,Speed_Accuracy,9000.0
MainBlock,5b060d9e68eff50001d1a2c1:TSS_DDL_092921,BLUE,red,incongruent,red,1.0,649.0,1.0,,1639177470495.0,1639177471144.0,1639177470494.0,0.0,0.0,3.0,Mixed,19.0,Speed,10000.0
MainBlock,5b060d9e68eff50001d1a2c1:TSS_DDL_092921,GREEN,green,congruent,green,1.0,812.0,2.0,,1639177471652.0,1639177472464.0,1639177470494.0,0.0,0.0,3.0,Mixed,19.0,Speed,10000.0
MainBlock,5b060d9e68eff50001d1a2c1:TSS_DDL_092921,BLUE,blue,congruent,blue,1.0,473.0,3.0,,1639177472967.0,1639177473440.0,1639177470494.0,0.0,0.0,3.0,Mixed,19.0,Speed,10000.0
MainBlock,5b060d9e68eff50001d1a2c1:TSS_DDL_092921,RED,yellow,incongruent,yellow,1.0,477.0,4.0,,1639177473946.0,1639177474424.0,1639177470494.0,0.0,0.0,3.0,Mixed,19.0,Speed,10000.0
MainBlock,5b060d9e68eff50001d1a2c1:TSS_DDL_092921,GREEN,green,congruent,green,1.0,491.0,5.0,,1639177474925.0,1639177475416.0,1639177470494.0,0.0,0.0,3.0,Mixed,19.0,Speed,10000.0
