"subj_idx","trialNum","rt","intervalType","previntervalType","scaledRunningTime","response","congruency"
"588e8b95670d6600012bd8dc",1,1.154,"Accuracy","Speed_Accuracy",-1.4394449325056,1,"incongruent"
"588e8b95670d6600012bd8dc",2,0.885,"Accuracy","Speed_Accuracy",-0.920818954184177,1,"congruent"
"588e8b95670d6600012bd8dc",3,1.036,"Accuracy","Speed_Accuracy",-0.410731878452106,1,"congruent"
"588e8b95670d6600012bd8dc",4,0.933,"Accuracy","Speed_Accuracy",0.167217002068991,1,"incongruent"
"588e8b95670d6600012bd8dc",5,0.723,"Accuracy","Speed_Accuracy",0.698876042237309,1,"congruent"
"588e8b95670d6600012bd8dc",6,0.936,"Accuracy","Speed_Accuracy",1.13615773799705,1,"incongruent"
"588e8b95670d6600012bd8dc",7,0.747,"Accuracy","Speed_Accuracy",1.66916502594263,1,"congruent"
"588e8b95670d6600012bd8dc",1,0.748,"Speed_Accuracy","Accuracy",-1.4394449325056,1,"congruent"
"588e8b95670d6600012bd8dc",2,0.856,"Speed_Accuracy","Accuracy",-1.10328182004076,1,"incongruent"
"588e8b95670d6600012bd8dc",3,0.65,"Speed_Accuracy","Accuracy",-0.606227806155587,1,"incongruent"
"588e8b95670d6600012bd8dc",4,0.759,"Speed_Accuracy","Accuracy",-0.20175347297597,1,"incongruent"
"588e8b95670d6600012bd8dc",6,1.194,"Speed_Accuracy","Accuracy",0.65078853818151,1,"congruent"
"588e8b95670d6600012bd8dc",7,0.939,"Speed_Accuracy","Accuracy",1.29974513497192,1,"incongruent"
"588e8b95670d6600012bd8dc",1,1.007,"Accuracy","Speed_Accuracy",-1.4394449325056,1,"congruent"
"588e8b95670d6600012bd8dc",2,1.075,"Accuracy","Speed_Accuracy",-0.986883095270181,1,"incongruent"
"588e8b95670d6600012bd8dc",3,0.719,"Accuracy","Speed_Accuracy",-0.391406993644635,1,"congruent"
"588e8b95670d6600012bd8dc",4,0.79,"Accuracy","Speed_Accuracy",0.0440770384120853,1,"incongruent"
"588e8b95670d6600012bd8dc",5,0.661,"Accuracy","Speed_Accuracy",0.51146960119742,1,"incongruent"
"588e8b95670d6600012bd8dc",6,0.411,"Accuracy","Speed_Accuracy",0.920887509560343,1,"congruent"
"588e8b95670d6600012bd8dc",7,0.361,"Accuracy","Speed_Accuracy",1.21795143648448,1,"congruent"
"588e8b95670d6600012bd8dc",1,1.008,"Speed","Accuracy",-1.4394449325056,1,"congruent"
"588e8b95670d6600012bd8dc",2,0.828,"Speed","Accuracy",-0.986433679344426,1,"incongruent"
"588e8b95670d6600012bd8dc",3,0.649,"Speed","Accuracy",-0.501963311380397,1,"congruent"
"588e8b95670d6600012bd8dc",5,1.164,"Speed","Accuracy",0.240921213892832,1,"congruent"
"588e8b95670d6600012bd8dc",6,0.547,"Speed","Accuracy",0.876395332910585,1,"incongruent"
"588e8b95670d6600012bd8dc",7,0.496,"Speed","Accuracy",1.23457982573742,1,"incongruent"
"588e8b95670d6600012bd8dc",8,0.387,"Speed","Accuracy",1.56984410635075,1,"congruent"
"588e8b95670d6600012bd8dc",9,0.605,"Speed","Accuracy",1.85612205105677,1,"congruent"
"588e8b95670d6600012bd8dc",1,0.93,"Accuracy","Speed",-1.4394449325056,1,"incongruent"
"588e8b95670d6600012bd8dc",2,0.631,"Accuracy","Speed",-1.02148812155333,1,"congruent"
"588e8b95670d6600012bd8dc",3,0.451,"Accuracy","Speed",-0.625552690963057,1,"congruent"
"588e8b95670d6600012bd8dc",4,0.614,"Accuracy","Speed",-0.310512127008712,1,"incongruent"
"588e8b95670d6600012bd8dc",5,0.819,"Accuracy","Speed",0.07778323284372,1,"incongruent"
"588e8b95670d6600012bd8dc",6,0.894,"Accuracy","Speed",0.558208857475953,1,"incongruent"
"588e8b95670d6600012bd8dc",7,0.769,"Accuracy","Speed",1.07234067653982,1,"congruent"
"588e8b95670d6600012bd8dc",8,0.727,"Accuracy","Speed",1.5302955048843,1,"congruent"
"588e8b95670d6600012bd8dc",9,0.7,"Accuracy","Speed",1.96937486434706,1,"congruent"
"588e8b95670d6600012bd8dc",10,0.445,"Accuracy","Speed",2.39631999381443,1,"incongruent"
"588e8b95670d6600012bd8dc",1,1.015,"Speed_Accuracy","Accuracy",-1.4394449325056,1,"incongruent"
"588e8b95670d6600012bd8dc",2,0.634,"Speed_Accuracy","Accuracy",-0.98328776786414,1,"congruent"
"588e8b95670d6600012bd8dc",3,0.749,"Speed_Accuracy","Accuracy",-0.586004089496606,1,"incongruent"
"588e8b95670d6600012bd8dc",4,1.194,"Speed_Accuracy","Accuracy",-0.137037579667232,1,"incongruent"
"588e8b95670d6600012bd8dc",5,0.616,"Speed_Accuracy","Accuracy",0.511919017123175,1,"congruent"
"588e8b95670d6600012bd8dc",6,0.865,"Speed_Accuracy","Accuracy",0.901113208827117,1,"congruent"
"588e8b95670d6600012bd8dc",7,0.648,"Speed_Accuracy","Accuracy",1.40221196604409,1,"congruent"
"588e8b95670d6600012bd8dc",1,0.915,"Speed_Accuracy","Speed_Accuracy",-1.4394449325056,1,"congruent"
"588e8b95670d6600012bd8dc",2,0.694,"Speed_Accuracy","Speed_Accuracy",-1.02822936043965,1,"incongruent"
"588e8b95670d6600012bd8dc",3,1.104,"Speed_Accuracy","Speed_Accuracy",-0.603980726526811,1,"incongruent"
"588e8b95670d6600012bd8dc",4,0.938,"Speed_Accuracy","Speed_Accuracy",0.00452843694563396,1,"incongruent"
"588e8b95670d6600012bd8dc",6,0.901,"Speed_Accuracy","Speed_Accuracy",0.970323261393407,1,"incongruent"
"588e8b95670d6600012bd8dc",1,0.809,"Accuracy","Speed_Accuracy",-1.4394449325056,1,"congruent"
"588e8b95670d6600012bd8dc",2,0.695,"Accuracy","Speed_Accuracy",-1.0758674485697,1,"incongruent"
"588e8b95670d6600012bd8dc",3,0.485,"Accuracy","Speed_Accuracy",-0.6511693987311,1,"incongruent"
"588e8b95670d6600012bd8dc",4,0.574,"Accuracy","Speed_Accuracy",-0.32084869330108,1,"congruent"
"588e8b95670d6600012bd8dc",5,0.441,"Accuracy","Speed_Accuracy",0.0494700295211469,1,"incongruent"
"588e8b95670d6600012bd8dc",6,0.827,"Accuracy","Speed_Accuracy",0.360016434217941,1,"incongruent"
"588e8b95670d6600012bd8dc",1,1.026,"Speed","Accuracy",-1.4394449325056,1,"congruent"
"588e8b95670d6600012bd8dc",2,0.814,"Speed","Accuracy",-0.978344192680834,1,"incongruent"
"588e8b95670d6600012bd8dc",3,0.476,"Speed","Accuracy",-0.500165647677376,1,"congruent"
"588e8b95670d6600012bd8dc",4,1.012,"Speed","Accuracy",-0.173889685579152,1,"incongruent"
"588e8b95670d6600012bd8dc",5,0.567,"Speed","Accuracy",0.393273212723821,1,"congruent"
"588e8b95670d6600012bd8dc",6,0.729,"Speed","Accuracy",0.760446024065762,1,"incongruent"
"588e8b95670d6600012bd8dc",1,0.718,"Speed","Speed",-1.4394449325056,1,"incongruent"
"588e8b95670d6600012bd8dc",2,0.605,"Speed","Speed",-1.11676429781341,1,"congruent"
"588e8b95670d6600012bd8dc",3,0.734,"Speed","Speed",-0.732513681292778,1,"incongruent"
"588e8b95670d6600012bd8dc",4,0.534,"Speed","Speed",-0.290288410349731,1,"congruent"
"588e8b95670d6600012bd8dc",5,0.906,"Speed","Speed",0.0620536754422905,1,"incongruent"
"588e8b95670d6600012bd8dc",6,0.593,"Speed","Speed",0.58157848561522,1,"congruent"
"588e8b95670d6600012bd8dc",7,0.526,"Speed","Speed",0.960436111026794,1,"incongruent"
"588e8b95670d6600012bd8dc",8,0.483,"Speed","Speed",1.30918286941277,1,"incongruent"
"588e8b95670d6600012bd8dc",10,0.691,"Speed","Speed",1.95409472287139,1,"incongruent"
"588e8b95670d6600012bd8dc",2,0.705,"Speed","Speed",-1.0889005104166,1,"congruent"
"588e8b95670d6600012bd8dc",3,1.428,"Speed","Speed",-0.659708301320447,1,"congruent"
"588e8b95670d6600012bd8dc",4,0.796,"Speed","Speed",0.0944116220966598,1,"incongruent"
"588e8b95670d6600012bd8dc",5,0.898,"Speed","Speed",0.564500680436525,1,"incongruent"
"588e8b95670d6600012bd8dc",6,0.581,"Speed","Speed",1.08043016320341,1,"congruent"
"588e8b95670d6600012bd8dc",7,0.678,"Speed","Speed",1.45389479750593,1,"congruent"
"588e8b95670d6600012bd8dc",1,0.957,"Speed","Speed",-1.4394449325056,1,"incongruent"
"588e8b95670d6600012bd8dc",2,0.444,"Speed","Speed",-1.00935389155794,1,"congruent"
"588e8b95670d6600012bd8dc",3,0.622,"Speed","Speed",-0.697459239083878,1,"congruent"
"588e8b95670d6600012bd8dc",4,0.47,"Speed","Speed",-0.305568551825405,1,"incongruent"
"588e8b95670d6600012bd8dc",5,0.712,"Speed","Speed",0.0180109147182878,1,"congruent"
"588e8b95670d6600012bd8dc",6,0.504,"Speed","Speed",0.450349035294722,1,"incongruent"
"588e8b95670d6600012bd8dc",7,0.511,"Speed","Speed",0.78920864331409,1,"congruent"
"588e8b95670d6600012bd8dc",8,0.799,"Speed","Speed",1.13121416281374,1,"incongruent"
"588e8b95670d6600012bd8dc",9,0.737,"Speed","Speed",1.60265146893087,1,"congruent"
"588e8b95670d6600012bd8dc",1,0.93,"Accuracy","Speed",-1.4394449325056,1,"congruent"
"588e8b95670d6600012bd8dc",2,0.606,"Accuracy","Speed",-1.02148812155333,1,"incongruent"
"588e8b95670d6600012bd8dc",3,1.243,"Accuracy","Speed",-0.636788089106936,1,"incongruent"
"588e8b95670d6600012bd8dc",4,0.566,"Accuracy","Speed",0.0341898880454725,1,"congruent"
"588e8b95670d6600012bd8dc",5,1.138,"Accuracy","Speed",0.400913283461658,1,"congruent"
"588e8b95670d6600012bd8dc",6,0.863,"Accuracy","Speed",1.02470258840978,1,"incongruent"
"588e8b95670d6600012bd8dc",1,1.123,"Accuracy","Accuracy",-1.4394449325056,1,"congruent"
"588e8b95670d6600012bd8dc",2,0.882,"Accuracy","Accuracy",-0.934750847882586,1,"incongruent"
"588e8b95670d6600012bd8dc",3,0.759,"Accuracy","Accuracy",-0.42601201992778,1,"incongruent"
"588e8b95670d6600012bd8dc",4,0.788,"Accuracy","Accuracy",0.0274486491591456,1,"congruent"
"588e8b95670d6600012bd8dc",5,0.894,"Accuracy","Accuracy",0.49394238009297,1,"incongruent"
"588e8b95670d6600012bd8dc",6,0.855,"Accuracy","Accuracy",1.00807419915684,1,"incongruent"
"588e8b95670d6600012bd8dc",7,0.731,"Accuracy","Accuracy",1.50467879711626,1,"congruent"
"588e8b95670d6600012bd8dc",8,0.654,"Accuracy","Accuracy",1.94555582028204,1,"incongruent"
"588e8b95670d6600012bd8dc",1,1.151,"Speed_Accuracy","Accuracy",-1.4394449325056,1,"congruent"
"588e8b95670d6600012bd8dc",2,0.734,"Speed_Accuracy","Accuracy",-0.922167201961443,1,"incongruent"
"588e8b95670d6600012bd8dc",3,0.606,"Speed_Accuracy","Accuracy",-0.479941931018395,1,"congruent"
"588e8b95670d6600012bd8dc",4,0.702,"Speed_Accuracy","Accuracy",-0.0952418985720048,1,"incongruent"
"588e8b95670d6600012bd8dc",5,0.657,"Speed_Accuracy","Accuracy",0.332602062746878,1,"congruent"
"588e8b95670d6600012bd8dc",6,1.347,"Speed_Accuracy","Accuracy",0.740222307406781,1,"incongruent"
"588e8b95670d6600012bd8dc",7,0.641,"Speed_Accuracy","Accuracy",1.45793954083772,1,"congruent"
"588e8b95670d6600012bd8dc",8,0.887,"Speed_Accuracy","Accuracy",1.85836913068554,1,"incongruent"
"588e8b95670d6600012bd8dc",9,0.623,"Speed_Accuracy","Accuracy",2.36935503826912,1,"congruent"
"588e8b95670d6600012bd8dc",1,0.971,"Speed_Accuracy","Speed_Accuracy",-1.4394449325056,1,"congruent"
"588e8b95670d6600012bd8dc",2,0.609,"Speed_Accuracy","Speed_Accuracy",-1.00306206859737,1,"incongruent"
"588e8b95670d6600012bd8dc",3,0.642,"Speed_Accuracy","Speed_Accuracy",-0.61701378837371,1,"incongruent"
"588e8b95670d6600012bd8dc",4,0.855,"Speed_Accuracy","Speed_Accuracy",-0.216134782600135,1,"congruent"
"588e8b95670d6600012bd8dc",5,0.743,"Speed_Accuracy","Speed_Accuracy",0.280469815359283,1,"congruent"
"588e8b95670d6600012bd8dc",6,1.083,"Speed_Accuracy","Speed_Accuracy",0.726739829634127,1,"incongruent"
"588e8b95670d6600012bd8dc",1,1.305,"Speed_Accuracy","Speed_Accuracy",-1.4394449325056,1,"congruent"
"588e8b95670d6600012bd8dc",2,0.705,"Speed_Accuracy","Speed_Accuracy",-0.852957149395153,1,"incongruent"
"588e8b95670d6600012bd8dc",3,0.587,"Speed_Accuracy","Speed_Accuracy",-0.423764940299004,1,"congruent"
"588e8b95670d6600012bd8dc",4,0.919,"Speed_Accuracy","Speed_Accuracy",-0.047603810441961,1,"incongruent"
"588e8b95670d6600012bd8dc",5,0.507,"Speed_Accuracy","Speed_Accuracy",0.477763406765785,1,"incongruent"
"588e8b95670d6600012bd8dc",6,0.762,"Speed_Accuracy","Speed_Accuracy",0.817971262562418,1,"congruent"
"588e8b95670d6600012bd8dc",7,0.785,"Speed_Accuracy","Speed_Accuracy",1.27278017942661,1,"congruent"
"588e8b95670d6600012bd8dc",8,0.764,"Speed_Accuracy","Speed_Accuracy",1.73792566258317,1,"incongruent"
"588e8b95670d6600012bd8dc",9,0.558,"Speed_Accuracy","Speed_Accuracy",2.19363341129887,1,"congruent"
"588e8b95670d6600012bd8dc",1,1.563,"Accuracy","Speed_Accuracy",-1.4394449325056,1,"incongruent"
"588e8b95670d6600012bd8dc",3,0.749,"Accuracy","Speed_Accuracy",-0.344218321440346,1,"incongruent"
"588e8b95670d6600012bd8dc",4,0.444,"Accuracy","Speed_Accuracy",0.104748188389028,1,"congruent"
"588e8b95670d6600012bd8dc",5,0.972,"Accuracy","Speed_Accuracy",0.416642840863088,1,"incongruent"
"588e8b95670d6600012bd8dc",6,0.626,"Accuracy","Speed_Accuracy",0.965829102135856,1,"incongruent"
"588e8b95670d6600012bd8dc",1,0.897,"Speed","Accuracy",-1.4394449325056,1,"congruent"
"588e8b95670d6600012bd8dc",2,1.053,"Speed","Accuracy",-1.03631884710325,1,"incongruent"
"588e8b95670d6600012bd8dc",3,0.912,"Speed","Accuracy",-0.450729895844312,1,"incongruent"
"588e8b95670d6600012bd8dc",4,0.739,"Speed","Accuracy",0.0714914098831482,1,"incongruent"
"588e8b95670d6600012bd8dc",5,0.737,"Speed","Accuracy",0.515963760454971,1,"congruent"
"588e8b95670d6600012bd8dc",6,0.947,"Speed","Accuracy",0.959537279175284,1,"incongruent"
"588e8b95670d6600012bd8dc",1,0.996,"Accuracy","Accuracy",-1.4394449325056,1,"congruent"
"588e8b95670d6600012bd8dc",3,0.708,"Accuracy","Accuracy",-0.51185046174701,1,"incongruent"
"588e8b95670d6600012bd8dc",6,0.76,"Accuracy","Accuracy",0.903809704381648,1,"congruent"
"588e8b95670d6600012bd8dc",1,0.989,"Speed_Accuracy","Accuracy",-1.4394449325056,0,"incongruent"
"588e8b95670d6600012bd8dc",2,1.061,"Speed_Accuracy","Accuracy",-0.994972581933774,1,"congruent"
"588e8b95670d6600012bd8dc",6,0.827,"Speed_Accuracy","Accuracy",0.96268319065557,1,"incongruent"
"588e8b95670d6600012bd8dc",3,0.83,"Speed_Accuracy","Speed_Accuracy",-0.616564372447955,1,"congruent"
"588e8b95670d6600012bd8dc",5,0.733,"Speed_Accuracy","Speed_Accuracy",0.349230451999818,1,"incongruent"
"588e8b95670d6600012bd8dc",6,0.433,"Speed_Accuracy","Speed_Accuracy",0.79100630701711,1,"incongruent"
"588e8b95670d6600012bd8dc",8,0.635,"Speed_Accuracy","Speed_Accuracy",1.60984212374296,1,"congruent"
"588e8b95670d6600012bd8dc",10,0.595,"Speed_Accuracy","Speed_Accuracy",2.40530831232954,1,"congruent"
"588e8b95670d6600012bd8dc",1,2.267,"Accuracy","Speed_Accuracy",-1.4394449325056,1,"congruent"
"588e8b95670d6600012bd8dc",2,0.853,"Accuracy","Speed_Accuracy",-0.420619028818718,1,"incongruent"
"588e8b95670d6600012bd8dc",3,1.164,"Accuracy","Speed_Accuracy",0.0750867372891893,1,"incongruent"
"588e8b95670d6600012bd8dc",4,1.271,"Accuracy","Speed_Accuracy",0.710560856306942,1,"congruent"
"588e8b95670d6600012bd8dc",1,1.088,"Accuracy","Accuracy",-1.4394449325056,1,"congruent"
"588e8b95670d6600012bd8dc",2,1.081,"Accuracy","Accuracy",-0.950480405284016,1,"incongruent"
"588e8b95670d6600012bd8dc",3,0.56,"Accuracy","Accuracy",-0.352307808103939,1,"congruent"
"588e8b95670d6600012bd8dc",4,0.845,"Accuracy","Accuracy",0.011719091757716,1,"incongruent"
"588e8b95670d6600012bd8dc",5,0.684,"Accuracy","Accuracy",0.503829530459583,1,"congruent"
"588e8b95670d6600012bd8dc",7,0.855,"Accuracy","Accuracy",1.36266336457763,1,"incongruent"
"588e8b95670d6600012bd8dc",1,0.893,"Speed","Accuracy",-1.4394449325056,1,"congruent"
"588e8b95670d6600012bd8dc",2,0.816,"Speed","Accuracy",-1.03811651080627,1,"incongruent"
"588e8b95670d6600012bd8dc",3,0.829,"Speed","Accuracy",-0.559039133951298,1,"incongruent"
"588e8b95670d6600012bd8dc",4,0.402,"Speed","Accuracy",-0.0741193500615137,1,"congruent"
"588e8b95670d6600012bd8dc",5,1.161,"Speed","Accuracy",0.218899833530831,1,"incongruent"
"588e8b95670d6600012bd8dc",6,0.947,"Speed","Accuracy",0.853025704771318,1,"incongruent"
"588e8b95670d6600012bd8dc",1,1.056,"Speed","Speed",-1.4394449325056,1,"incongruent"
"588e8b95670d6600012bd8dc",2,0.723,"Speed","Speed",-0.96486171490818,1,"congruent"
"588e8b95670d6600012bd8dc",3,0.494,"Speed","Speed",-0.527580019148439,1,"congruent"
"588e8b95670d6600012bd8dc",4,0.69,"Speed","Speed",-0.193214570386623,1,"incongruent"
"588e8b95670d6600012bd8dc",5,0.784,"Speed","Speed",0.229236399823199,1,"incongruent"
"588e8b95670d6600012bd8dc",6,0.734,"Speed","Speed",0.693932467054002,1,"congruent"
"588e8b95670d6600012bd8dc",7,0.739,"Speed","Speed",1.13615773799705,1,"incongruent"
"588e8b95670d6600012bd8dc",8,1,"Speed","Speed",1.58063008856887,1,"incongruent"
"588e8b95670d6600012bd8dc",9,0.591,"Speed","Speed",2.14239999576278,1,"incongruent"
"588e8b95670d6600012bd8dc",1,1.099,"Accuracy","Speed",-1.4394449325056,1,"incongruent"
"588e8b95670d6600012bd8dc",2,0.556,"Accuracy","Speed",-0.94553683010071,1,"congruent"
"588e8b95670d6600012bd8dc",3,0.445,"Accuracy","Speed",-0.583307593942075,1,"incongruent"
"588e8b95670d6600012bd8dc",4,0.505,"Accuracy","Speed",-0.27096352554226,1,"incongruent"
"588e8b95670d6600012bd8dc",5,0.488,"Accuracy","Speed",0.0683454984028623,1,"congruent"
"588e8b95670d6600012bd8dc",6,0.696,"Accuracy","Speed",0.400014451610148,1,"incongruent"
"588e8b95670d6600012bd8dc",7,0.653,"Accuracy","Speed",0.8251619173745,1,"congruent"
"588e8b95670d6600012bd8dc",8,0.489,"Accuracy","Speed",1.23098449833138,1,"congruent"
"588e8b95670d6600012bd8dc",9,0.686,"Accuracy","Speed",1.56310286746442,1,"congruent"
"588e8b95670d6600012bd8dc",10,1.035,"Accuracy","Speed",1.98375617397122,1,"incongruent"
"588e8b95670d6600012bd8dc",1,1.015,"Speed_Accuracy","Accuracy",-1.4394449325056,1,"congruent"
"588e8b95670d6600012bd8dc",2,0.782,"Speed_Accuracy","Accuracy",-0.98328776786414,1,"incongruent"
"588e8b95670d6600012bd8dc",3,0.736,"Speed_Accuracy","Accuracy",-0.519490532484847,1,"incongruent"
"588e8b95670d6600012bd8dc",4,0.578,"Speed_Accuracy","Accuracy",-0.0763664296902893,1,"incongruent"
"588e8b95670d6600012bd8dc",5,0.63,"Speed_Accuracy","Accuracy",0.295749956834958,1,"congruent"
"588e8b95670d6600012bd8dc",6,0.446,"Speed_Accuracy","Accuracy",0.691235971499472,1,"congruent"
"588e8b95670d6600012bd8dc",7,0.49,"Speed_Accuracy","Accuracy",1.00402945582504,1,"congruent"
"588e8b95670d6600012bd8dc",1,0.935,"Speed","Speed_Accuracy",-1.4394449325056,1,"congruent"
"588e8b95670d6600012bd8dc",2,0.972,"Speed","Speed_Accuracy",-1.01924104192455,1,"incongruent"
"588e8b95670d6600012bd8dc",3,0.529,"Speed","Speed_Accuracy",-0.470054780651783,1,"congruent"
"588e8b95670d6600012bd8dc",4,0.516,"Speed","Speed_Accuracy",-0.119959774488537,1,"incongruent"
"588e8b95670d6600012bd8dc",5,0.47,"Speed","Speed_Accuracy",0.224292824639892,1,"incongruent"
"588e8b95670d6600012bd8dc",6,0.857,"Speed","Speed_Accuracy",0.547872291183585,1,"incongruent"
"588e8b95670d6600012bd8dc",7,0.773,"Speed","Speed_Accuracy",1.04537572099451,1,"incongruent"
"588e8b95670d6600012bd8dc",8,0.748,"Speed","Speed_Accuracy",1.50512821304201,1,"congruent"
"588e8b95670d6600012bd8dc",9,0.641,"Speed","Speed_Accuracy",1.95364530694563,1,"congruent"
"588e8b95670d6600012bd8dc",1,0.858,"Speed","Speed",-1.4394449325056,1,"incongruent"
"588e8b95670d6600012bd8dc",2,0.752,"Speed","Speed",-1.0538460682077,1,"congruent"
"588e8b95670d6600012bd8dc",3,0.64,"Speed","Speed",-0.603531310601056,1,"incongruent"
"588e8b95670d6600012bd8dc",4,0.542,"Speed","Speed",-0.203551136678991,1,"incongruent"
"588e8b95670d6600012bd8dc",5,0.419,"Speed","Speed",0.152386276519072,1,"congruent"
"588e8b95670d6600012bd8dc",6,0.919,"Speed","Speed",0.453045530849253,1,"incongruent"
"588e8b95670d6600012bd8dc",7,0.601,"Speed","Speed",0.978412748056999,1,"incongruent"
"588e8b95670d6600012bd8dc",1,1.157,"Speed_Accuracy","Speed",-1.4394449325056,1,"incongruent"
"588e8b95670d6600012bd8dc",2,0.611,"Speed_Accuracy","Speed",-0.919470706406912,1,"congruent"
"588e8b95670d6600012bd8dc",3,0.602,"Speed_Accuracy","Speed",-0.532523594331746,1,"congruent"
"588e8b95670d6600012bd8dc",4,0.412,"Speed_Accuracy","Speed",-0.149621225588375,1,"incongruent"
"588e8b95670d6600012bd8dc",5,0.768,"Speed_Accuracy","Speed",0.14789211726152,1,"incongruent"
"588e8b95670d6600012bd8dc",6,0.579,"Speed_Accuracy","Speed",0.605397529680242,1,"congruent"
"588e8b95670d6600012bd8dc",1,0.952,"Accuracy","Speed_Accuracy",-1.4394449325056,1,"incongruent"
"588e8b95670d6600012bd8dc",2,0.594,"Accuracy","Speed_Accuracy",-1.01160097118671,1,"congruent"
"588e8b95670d6600012bd8dc",3,0.581,"Accuracy","Speed_Accuracy",-0.632293929849384,1,"incongruent"
"588e8b95670d6600012bd8dc",4,0.825,"Accuracy","Speed_Accuracy",-0.258829295546872,1,"congruent"
"588e8b95670d6600012bd8dc",5,0.845,"Accuracy","Speed_Accuracy",0.224292824639892,1,"incongruent"
"588e8b95670d6600012bd8dc",6,0.556,"Accuracy","Speed_Accuracy",0.716403263341759,1,"congruent"
"588e8b95670d6600012bd8dc",7,0.606,"Accuracy","Speed_Accuracy",1.07863249950039,1,"incongruent"
"588e8b95670d6600012bd8dc",1,0.955,"Speed_Accuracy","Accuracy",-1.4394449325056,1,"congruent"
"588e8b95670d6600012bd8dc",2,0.628,"Speed_Accuracy","Accuracy",-1.01025272340945,1,"incongruent"
"588e8b95670d6600012bd8dc",3,0.714,"Speed_Accuracy","Accuracy",-0.615665540596445,1,"incongruent"
"588e8b95670d6600012bd8dc",4,0.571,"Speed_Accuracy","Accuracy",-0.1824285881685,1,"congruent"
"588e8b95670d6600012bd8dc",5,0.802,"Speed_Accuracy","Accuracy",0.186541886876461,1,"congruent"
"588e8b95670d6600012bd8dc",6,0.634,"Speed_Accuracy","Accuracy",0.659327440770857,1,"incongruent"
"588e8b95670d6600012bd8dc",7,0.908,"Speed_Accuracy","Accuracy",1.05661111913839,1,"incongruent"
"588e8b95670d6600012bd8dc",1,1.48,"Speed_Accuracy","Speed_Accuracy",-1.4394449325056,1,"incongruent"
"588e8b95670d6600012bd8dc",3,0.66,"Speed_Accuracy","Speed_Accuracy",-0.416124869561167,1,"congruent"
"588e8b95670d6600012bd8dc",4,0.754,"Speed_Accuracy","Speed_Accuracy",-0.0071563771239994,1,"incongruent"
"588e8b95670d6600012bd8dc",5,0.6,"Speed_Accuracy","Speed_Accuracy",0.444057212334151,1,"congruent"
"588e8b95670d6600012bd8dc",6,0.438,"Speed_Accuracy","Speed_Accuracy",0.82606074922601,1,"incongruent"
"588e8b95670d6600012bd8dc",7,0.923,"Speed_Accuracy","Speed_Accuracy",1.13525890614554,1,"incongruent"
"588e8b95670d6600012bd8dc",8,0.733,"Speed_Accuracy","Speed_Accuracy",1.66242378705631,1,"incongruent"
"588e8b95670d6600012bd8dc",1,0.769,"Speed","Speed_Accuracy",-1.4394449325056,1,"congruent"
"588e8b95670d6600012bd8dc",2,0.641,"Speed","Speed_Accuracy",-1.0938440855999,1,"incongruent"
"588e8b95670d6600012bd8dc",3,0.563,"Speed","Speed_Accuracy",-0.693414495752082,1,"congruent"
"588e8b95670d6600012bd8dc",4,0.654,"Speed","Speed_Accuracy",-0.328039348113162,1,"incongruent"
"588e8b95670d6600012bd8dc",5,0.719,"Speed","Speed_Accuracy",0.0782326487694752,1,"incongruent"
"588e8b95670d6600012bd8dc",6,0.542,"Speed","Speed_Accuracy",0.513716680826196,1,"congruent"
"588e8b95670d6600012bd8dc",7,0.75,"Speed","Speed_Accuracy",0.869654094024258,1,"incongruent"
"588e8b95670d6600012bd8dc",8,0.467,"Speed","Speed_Accuracy",1.31907001977939,1,"congruent"
"588e8b95670d6600012bd8dc",9,0.587,"Speed","Speed_Accuracy",1.64130123854582,1,"incongruent"
"588e8b95670d6600012bd8dc",1,0.95,"Accuracy","Speed",-1.4394449325056,0,"incongruent"
"588e8b95670d6600012bd8dc",2,0.721,"Accuracy","Speed",-1.01249980303822,1,"congruent"
"588e8b95670d6600012bd8dc",3,1.612,"Accuracy","Speed",-0.576116939129993,1,"incongruent"
"588e8b95670d6600012bd8dc",4,0.695,"Accuracy","Speed",0.260695514626058,1,"congruent"
"588e8b95670d6600012bd8dc",5,0.799,"Accuracy","Speed",0.685393564464655,1,"incongruent"
"588e8b95670d6600012bd8dc",1,1.174,"Speed_Accuracy","Accuracy",-1.4394449325056,1,"congruent"
"588e8b95670d6600012bd8dc",2,0.652,"Speed_Accuracy","Accuracy",-0.911830635669075,1,"incongruent"
"588e8b95670d6600012bd8dc",3,0.611,"Speed_Accuracy","Accuracy",-0.506457470637948,1,"congruent"
"588e8b95670d6600012bd8dc",4,0.774,"Speed_Accuracy","Accuracy",-0.119510358562782,1,"incongruent"
"588e8b95670d6600012bd8dc",5,0.891,"Speed_Accuracy","Accuracy",0.340691549410471,1,"incongruent"
"588e8b95670d6600012bd8dc",6,0.789,"Speed_Accuracy","Accuracy",0.853475120697073,1,"incongruent"
"588e8b95670d6600012bd8dc",7,0.77,"Speed_Accuracy","Accuracy",1.32041826755665,1,"incongruent"
"588e8b95670d6600012bd8dc",8,0.642,"Speed_Accuracy","Accuracy",1.77882251182688,1,"congruent"
"588e8b95670d6600012bd8dc",1,1.57,"Speed","Speed_Accuracy",-1.4394449325056,1,"incongruent"
"588e8b95670d6600012bd8dc",2,0.608,"Speed","Speed_Accuracy",-0.733861929070044,1,"congruent"
"588e8b95670d6600012bd8dc",3,0.551,"Speed","Speed_Accuracy",-0.348263064772143,1,"congruent"
"588e8b95670d6600012bd8dc",4,0.602,"Speed","Speed_Accuracy",0.011719091757716,1,"incongruent"
"588e8b95670d6600012bd8dc",5,0.785,"Speed","Speed_Accuracy",0.394621460501086,1,"incongruent"
"588e8b95670d6600012bd8dc",6,1.252,"Speed","Speed_Accuracy",0.859766943657645,1,"incongruent"
"588e8b95670d6600012bd8dc",1,1.518,"Speed","Accuracy",-1.4394449325056,1,"incongruent"
"588e8b95670d6600012bd8dc",2,0.569,"Speed","Accuracy",-0.75723155720931,1,"congruent"
"588e8b95670d6600012bd8dc",3,0.742,"Speed","Accuracy",-0.389159914015859,1,"incongruent"
"588e8b95670d6600012bd8dc",4,0.432,"Speed","Accuracy",0.056660684333229,1,"incongruent"
"588e8b95670d6600012bd8dc",5,0.596,"Speed","Accuracy",0.363162345698227,1,"congruent"
"588e8b95670d6600012bd8dc",6,0.741,"Speed","Accuracy",0.743368218887067,1,"incongruent"
"588e8b95670d6600012bd8dc",7,0.758,"Speed","Accuracy",1.1887394013104,1,"incongruent"
"588e8b95670d6600012bd8dc",9,0.728,"Speed","Accuracy",2.02060827988314,1,"congruent"
"588e8b95670d6600012bd8dc",10,0.744,"Speed","Accuracy",2.46013705527166,1,"congruent"
"588e8b95670d6600012bd8dc",1,0.791,"Accuracy","Speed",-1.4394449325056,1,"congruent"
"588e8b95670d6600012bd8dc",2,0.575,"Accuracy","Speed",-1.08395693523329,0,"incongruent"
"588e8b95670d6600012bd8dc",3,0.564,"Accuracy","Speed",-0.713188796485308,1,"congruent"
"588e8b95670d6600012bd8dc",4,0.685,"Accuracy","Speed",-0.347364232920632,1,"incongruent"
"588e8b95670d6600012bd8dc",5,0.609,"Accuracy","Speed",0.0728396576604136,1,"congruent"
"588e8b95670d6600012bd8dc",6,0.988,"Accuracy","Speed",0.45888793788407,1,"incongruent"
"588e8b95670d6600012bd8dc",7,0.519,"Accuracy","Speed",1.01526485396892,1,"congruent"
"588e8b95670d6600012bd8dc",1,1.431,"Speed_Accuracy","Accuracy",-1.4394449325056,1,"incongruent"
"588e8b95670d6600012bd8dc",2,0.59,"Speed_Accuracy","Accuracy",-0.796330742750007,1,"congruent"
"588e8b95670d6600012bd8dc",3,0.698,"Speed_Accuracy","Accuracy",-0.418821365115698,1,"incongruent"
"588e8b95670d6600012bd8dc",4,0.681,"Speed_Accuracy","Accuracy",0.00722493250016474,1,"congruent"
"588e8b95670d6600012bd8dc",5,0.588,"Speed_Accuracy","Accuracy",0.42563115937819,1,"congruent"
"588e8b95670d6600012bd8dc",6,0.615,"Speed_Accuracy","Accuracy",0.802241705160989,1,"incongruent"
"588e8b95670d6600012bd8dc",1,0.83,"Speed_Accuracy","Speed_Accuracy",-1.4394449325056,1,"congruent"
"588e8b95670d6600012bd8dc",2,0.825,"Speed_Accuracy","Speed_Accuracy",-1.06642971412884,1,"incongruent"
"588e8b95670d6600012bd8dc",3,0.51,"Speed_Accuracy","Speed_Accuracy",-0.583307593942075,1,"congruent"
"588e8b95670d6600012bd8dc",4,0.528,"Speed_Accuracy","Speed_Accuracy",-0.241751490368177,1,"incongruent"
"588e8b95670d6600012bd8dc",5,0.662,"Speed_Accuracy","Speed_Accuracy",0.107894099869314,1,"congruent"
"588e8b95670d6600012bd8dc",6,0.83,"Speed_Accuracy","Speed_Accuracy",0.517761424157992,1,"incongruent"
"588e8b95670d6600012bd8dc",7,0.895,"Speed_Accuracy","Speed_Accuracy",1.00313062397353,1,"congruent"
"588e8b95670d6600012bd8dc",8,0.617,"Speed_Accuracy","Speed_Accuracy",1.51771185896315,1,"incongruent"
"588e8b95670d6600012bd8dc",9,0.671,"Speed_Accuracy","Speed_Accuracy",1.90735546659285,1,"congruent"
"588e8b95670d6600012bd8dc",1,1.099,"Accuracy","Speed_Accuracy",-1.4394449325056,1,"congruent"
"588e8b95670d6600012bd8dc",2,1.355,"Accuracy","Speed_Accuracy",-0.94553683010071,1,"incongruent"
"588e8b95670d6600012bd8dc",3,1.321,"Accuracy","Speed_Accuracy",-0.224224269263727,1,"incongruent"
"588e8b95670d6600012bd8dc",4,0.9,"Accuracy","Speed_Accuracy",0.481808150097581,1,"incongruent"
"588e8b95670d6600012bd8dc",5,0.651,"Accuracy","Speed_Accuracy",0.99863646471598,1,"congruent"
"588e8b95670d6600012bd8dc",6,0.681,"Accuracy","Speed_Accuracy",1.40356021382135,1,"congruent"
"588e8b95670d6600012bd8dc",7,0.558,"Accuracy","Speed_Accuracy",1.82196644069938,1,"incongruent"
"588e8b95670d6600012bd8dc",8,0.748,"Accuracy","Speed_Accuracy",2.18509450870952,1,"congruent"
"588e8b95670d6600012bd8dc",1,0.951,"Speed","Accuracy",-1.4394449325056,1,"incongruent"
"588e8b95670d6600012bd8dc",2,0.677,"Speed","Accuracy",-1.01205038711247,1,"congruent"
"588e8b95670d6600012bd8dc",3,0.865,"Speed","Accuracy",-0.595441823937464,1,"incongruent"
"588e8b95670d6600012bd8dc",4,0.653,"Speed","Accuracy",-0.0943430667204945,1,"incongruent"
"588e8b95670d6600012bd8dc",5,0.796,"Speed","Accuracy",0.311479514236387,1,"congruent"
"588e8b95670d6600012bd8dc",6,0.716,"Speed","Accuracy",0.781568572576253,1,"congruent"
"588e8b95670d6600012bd8dc",7,0.707,"Speed","Accuracy",1.21570435685571,1,"congruent"
"588e8b95670d6600012bd8dc",8,0.506,"Speed","Accuracy",1.64579539780337,1,"incongruent"
"588e8b95670d6600012bd8dc",9,0.935,"Speed","Accuracy",1.98555383767424,1,"incongruent"
"588e8b95670d6600012bd8dc",1,1.357,"Accuracy","Speed",-1.4394449325056,1,"incongruent"
"588e8b95670d6600012bd8dc",2,0.589,"Accuracy","Speed",-0.829587521255886,1,"congruent"
"588e8b95670d6600012bd8dc",3,1.016,"Accuracy","Speed",-0.452527559547333,1,"incongruent"
"588e8b95670d6600012bd8dc",4,0.615,"Accuracy","Speed",0.116433002458661,1,"congruent"
"588e8b95670d6600012bd8dc",5,0.71,"Accuracy","Speed",0.505177778236848,1,"congruent"
"588e8b95670d6600012bd8dc",6,0.822,"Accuracy","Speed",0.936617066961772,1,"incongruent"
"588e8b95670d6600012bd8dc",7,0.973,"Accuracy","Speed",1.41839093937127,1,"incongruent"
"588e8b95670d6600012bd8dc",1,1.645,"Speed_Accuracy","Accuracy",-1.4394449325056,1,"congruent"
"588e8b95670d6600012bd8dc",2,1.046,"Speed_Accuracy","Accuracy",-0.700155734638409,1,"incongruent"
"588e8b95670d6600012bd8dc",3,0.657,"Speed_Accuracy","Accuracy",-0.117712694859761,1,"congruent"
"588e8b95670d6600012bd8dc",4,0.954,"Speed_Accuracy","Accuracy",0.289907549800141,1,"incongruent"
"588e8b95670d6600012bd8dc",5,0.842,"Speed_Accuracy","Accuracy",0.831004324409317,1,"incongruent"
"588e8b95670d6600012bd8dc",6,0.689,"Speed_Accuracy","Accuracy",1.32176651533392,1,"incongruent"
"588e8b95670d6600012bd8dc",1,0.877,"Speed_Accuracy","Speed_Accuracy",-1.4394449325056,1,"congruent"
"588e8b95670d6600012bd8dc",2,0.704,"Speed_Accuracy","Speed_Accuracy",-1.04530716561835,1,"incongruent"
"588e8b95670d6600012bd8dc",3,0.622,"Speed_Accuracy","Speed_Accuracy",-0.616564372447955,1,"congruent"
"588e8b95670d6600012bd8dc",5,0.976,"Speed_Accuracy","Speed_Accuracy",0.387430805689004,1,"congruent"
"588e8b95670d6600012bd8dc",6,0.681,"Speed_Accuracy","Speed_Accuracy",0.938414730664793,1,"incongruent"
"588e8b95670d6600012bd8dc",7,0.67,"Speed_Accuracy","Speed_Accuracy",1.35682095754282,1,"congruent"
"588e8b95670d6600012bd8dc",8,0.615,"Speed_Accuracy","Speed_Accuracy",1.77028360923754,1,"incongruent"
"588e8b95670d6600012bd8dc",9,0.54,"Speed_Accuracy","Speed_Accuracy",2.15902838501572,1,"congruent"
"588e8b95670d6600012bd8dc",1,1.068,"Speed","Speed_Accuracy",-1.4394449325056,1,"congruent"
"588e8b95670d6600012bd8dc",2,0.915,"Speed","Speed_Accuracy",-0.959468723799119,1,"incongruent"
"588e8b95670d6600012bd8dc",3,0.647,"Speed","Speed_Accuracy",-0.435899170294393,1,"congruent"
"588e8b95670d6600012bd8dc",4,0.796,"Speed","Speed_Accuracy",-0.0327730848920418,1,"incongruent"
"588e8b95670d6600012bd8dc",5,0.502,"Speed","Speed_Accuracy",0.437315973447824,1,"incongruent"
"588e8b95670d6600012bd8dc",6,0.703,"Speed","Speed_Accuracy",0.775276749615681,1,"incongruent"
"588e8b95670d6600012bd8dc",1,0.903,"Speed","Speed",-1.4394449325056,1,"incongruent"
"588e8b95670d6600012bd8dc",2,0.571,"Speed","Speed",-1.03362235154871,1,"congruent"
"588e8b95670d6600012bd8dc",3,0.645,"Speed","Speed",-0.664651876503754,1,"incongruent"
"588e8b95670d6600012bd8dc",4,0.575,"Speed","Speed",-0.262424622952913,1,"congruent"
"588e8b95670d6600012bd8dc",5,0.739,"Speed","Speed",0.108343515795069,1,"congruent"
"588e8b95670d6600012bd8dc",6,1.178,"Speed","Speed",0.552815866366892,1,"incongruent"
"588e8b95670d6600012bd8dc",1,0.854,"Speed","Speed",-1.4394449325056,1,"congruent"
"588e8b95670d6600012bd8dc",2,0.557,"Speed","Speed",-1.05564373191072,1,"incongruent"
"588e8b95670d6600012bd8dc",3,0.433,"Speed","Speed",-0.692965079826327,1,"congruent"
"588e8b95670d6600012bd8dc",4,0.632,"Speed","Speed",-0.386014002535573,1,"incongruent"
"588e8b95670d6600012bd8dc",5,0.638,"Speed","Speed",0.0103708439804506,1,"congruent"
"588e8b95670d6600012bd8dc",6,0.676,"Speed","Speed",0.409452186051006,1,"incongruent"
"588e8b95670d6600012bd8dc",7,0.603,"Speed","Speed",0.825611333300255,1,"incongruent"
"588e8b95670d6600012bd8dc",8,0.688,"Speed","Speed",1.20896311796938,1,"incongruent"
"588e8b95670d6600012bd8dc",1,1.147,"Speed_Accuracy","Speed",-1.4394449325056,1,"incongruent"
"588e8b95670d6600012bd8dc",2,0.647,"Speed_Accuracy","Speed",-0.923964865664463,1,"congruent"
"588e8b95670d6600012bd8dc",3,0.46,"Speed_Accuracy","Speed",-0.520838780262112,1,"congruent"
"588e8b95670d6600012bd8dc",4,0.662,"Speed_Accuracy","Speed",-0.20175347297597,1,"incongruent"
"588e8b95670d6600012bd8dc",5,0.767,"Speed_Accuracy","Speed",0.208113851312708,1,"incongruent"
"588e8b95670d6600012bd8dc",6,0.944,"Speed_Accuracy","Speed",0.665169847805674,1,"incongruent"
"588e8b95670d6600012bd8dc",7,0.6,"Speed_Accuracy","Speed",1.2017724631573,1,"congruent"
"588e8b95670d6600012bd8dc",8,0.583,"Speed_Accuracy","Speed",1.58377600004916,1,"congruent"
"588e8b95670d6600012bd8dc",1,1.515,"Speed_Accuracy","Speed_Accuracy",-1.4394449325056,1,"incongruent"
"588e8b95670d6600012bd8dc",2,0.611,"Speed_Accuracy","Speed_Accuracy",-0.758579804986576,1,"congruent"
"588e8b95670d6600012bd8dc",3,0.673,"Speed_Accuracy","Speed_Accuracy",-0.371632692911409,1,"congruent"
"588e8b95670d6600012bd8dc",4,0.529,"Speed_Accuracy","Speed_Accuracy",0.0431782065605751,1,"incongruent"
"588e8b95670d6600012bd8dc",5,0.468,"Speed_Accuracy","Speed_Accuracy",0.393273212723821,1,"congruent"
"588e8b95670d6600012bd8dc",6,0.821,"Speed_Accuracy","Speed_Accuracy",0.715953847416004,1,"incongruent"
"588e8b95670d6600012bd8dc",1,1.125,"Accuracy","Speed_Accuracy",-1.4394449325056,1,"incongruent"
"588e8b95670d6600012bd8dc",2,0.53,"Accuracy","Speed_Accuracy",-0.933852016031076,1,"congruent"
"588e8b95670d6600012bd8dc",3,0.653,"Accuracy","Speed_Accuracy",-0.583307593942075,1,"congruent"
"588e8b95670d6600012bd8dc",4,1.041,"Accuracy","Speed_Accuracy",-0.177485012985193,1,"incongruent"
"588e8b95670d6600012bd8dc",5,0.536,"Accuracy","Speed_Accuracy",0.402710947164679,1,"congruent"
"588e8b95670d6600012bd8dc",6,0.663,"Accuracy","Speed_Accuracy",0.75595186480821,1,"incongruent"
"588e8b95670d6600012bd8dc",7,0.721,"Accuracy","Speed_Accuracy",1.16626860502264,1,"incongruent"
"588e8b95670d6600012bd8dc",2,0.686,"Accuracy","Accuracy",-1.03901534265778,1,"congruent"
"588e8b95670d6600012bd8dc",3,0.576,"Accuracy","Accuracy",-0.618362036150975,1,"incongruent"
"588e8b95670d6600012bd8dc",4,0.695,"Accuracy","Accuracy",-0.247144481477238,1,"congruent"
"588e8b95670d6600012bd8dc",5,0.593,"Accuracy","Accuracy",0.177553568361359,1,"congruent"
"588e8b95670d6600012bd8dc",6,0.848,"Accuracy","Accuracy",0.556411193772933,1,"incongruent"
"588e8b95670d6600012bd8dc",7,0.686,"Accuracy","Accuracy",1.04986988025206,0,"incongruent"
"588e8b95670d6600012bd8dc",8,1.107,"Accuracy","Accuracy",1.47052318675887,1,"congruent"
"588e8b95670d6600012bd8dc",9,1.376,"Accuracy","Accuracy",2.08038059800858,1,"incongruent"
"588e8b95670d6600012bd8dc",1,1.042,"Accuracy","Accuracy",-1.4394449325056,1,"incongruent"
"588e8b95670d6600012bd8dc",2,0.654,"Accuracy","Accuracy",-0.971153537868752,1,"congruent"
"588e8b95670d6600012bd8dc",3,0.618,"Accuracy","Accuracy",-0.564881540986115,1,"incongruent"
"588e8b95670d6600012bd8dc",4,0.684,"Accuracy","Accuracy",-0.174788517430663,1,"congruent"
"588e8b95670d6600012bd8dc",5,0.638,"Accuracy","Accuracy",0.244965957224628,1,"incongruent"
"588e8b95670d6600012bd8dc",6,0.491,"Accuracy","Accuracy",0.644047299295183,1,"congruent"
"588e8b95670d6600012bd8dc",7,0.587,"Accuracy","Accuracy",0.977064500279734,1,"congruent"
"588e8b95670d6600012bd8dc",8,0.686,"Accuracy","Accuracy",1.35322563013678,1,"incongruent"
"588e8b95670d6600012bd8dc",1,0.907,"Speed_Accuracy","Accuracy",-1.4394449325056,1,"congruent"
"588e8b95670d6600012bd8dc",2,0.492,"Speed_Accuracy","Accuracy",-1.03182468784569,1,"incongruent"
"588e8b95670d6600012bd8dc",3,0.403,"Speed_Accuracy","Accuracy",-0.698358070935388,1,"congruent"
"588e8b95670d6600012bd8dc",4,0.72,"Speed_Accuracy","Accuracy",-0.404889471417289,1,"incongruent"
"588e8b95670d6600012bd8dc",5,0.854,"Speed_Accuracy","Accuracy",0.0310439765651866,1,"incongruent"
"588e8b95670d6600012bd8dc",6,0.589,"Speed_Accuracy","Accuracy",0.527199158598849,1,"congruent"
"588e8b95670d6600012bd8dc",7,0.595,"Speed_Accuracy","Accuracy",0.904259120307403,0,"incongruent"
"588e8b95670d6600012bd8dc",1,1.111,"Speed","Speed_Accuracy",-1.4394449325056,1,"incongruent"
"588e8b95670d6600012bd8dc",2,0.613,"Speed","Speed_Accuracy",-0.940143838991648,1,"congruent"
"588e8b95670d6600012bd8dc",3,0.448,"Speed","Speed_Accuracy",-0.552297895064971,1,"congruent"
"588e8b95670d6600012bd8dc",4,0.647,"Speed","Speed_Accuracy",-0.238605578887891,1,"incongruent"
"588e8b95670d6600012bd8dc",5,0.5,"Speed","Speed_Accuracy",0.16452050651446,1,"incongruent"
"588e8b95670d6600012bd8dc",6,0.71,"Speed","Speed_Accuracy",0.501582450830807,1,"incongruent"
"588e8b95670d6600012bd8dc",7,0.629,"Speed","Speed_Accuracy",0.933021739555731,1,"incongruent"
"588e8b95670d6600012bd8dc",8,0.722,"Speed","Speed_Accuracy",1.32805833829449,1,"congruent"
"5928cbac80a86200013f3732",2,0.92,"Speed_Accuracy","Speed_Accuracy",-0.87902327308895,1,"incongruent"
"5928cbac80a86200013f3732",5,1.216,"Speed_Accuracy","Speed_Accuracy",0.594162131536364,1,"incongruent"
"5928cbac80a86200013f3732",6,0.616,"Speed_Accuracy","Speed_Accuracy",1.25300587869338,1,"congruent"
"5928cbac80a86200013f3732",3,0.897,"Accuracy","Speed_Accuracy",0.179351232064379,1,"incongruent"
"5928cbac80a86200013f3732",5,0.616,"Accuracy","Speed_Accuracy",1.13211299466525,1,"congruent"
"5928cbac80a86200013f3732",3,1.319,"Speed_Accuracy","Accuracy",-0.0408625715556341,1,"congruent"
"5928cbac80a86200013f3732",5,1.125,"Speed_Accuracy","Accuracy",1.10379979134268,1,"congruent"
"5928cbac80a86200013f3732",6,0.632,"Speed_Accuracy","Accuracy",1.72174668925598,0,"incongruent"
"5928cbac80a86200013f3732",1,1.636,"Accuracy","Speed_Accuracy",-1.4394449325056,1,"incongruent"
"5928cbac80a86200013f3732",2,0.552,"Accuracy","Speed_Accuracy",-0.704200477970205,1,"congruent"
"5928cbac80a86200013f3732",4,1.191,"Accuracy","Speed_Accuracy",0.184744223173441,1,"incongruent"
"5928cbac80a86200013f3732",6,1.195,"Accuracy","Speed_Accuracy",1.42872750566364,1,"congruent"
"5928cbac80a86200013f3732",7,1.494,"Accuracy","Speed_Accuracy",2.0781335183798,0,"incongruent"
"5928cbac80a86200013f3732",1,1.224,"Accuracy","Accuracy",-1.4394449325056,1,"congruent"
"5928cbac80a86200013f3732",2,0.738,"Accuracy","Accuracy",-0.889359839381318,0,"incongruent"
"5928cbac80a86200013f3732",3,1.11,"Accuracy","Accuracy",-0.445336904735251,1,"congruent"
"5928cbac80a86200013f3732",4,0.564,"Accuracy","Accuracy",0.165868754291725,1,"incongruent"
"5928cbac80a86200013f3732",3,0.955,"Speed_Accuracy","Accuracy",-0.576116939129993,1,"incongruent"
"5928cbac80a86200013f3732",4,1.103,"Speed_Accuracy","Accuracy",-0.0345707485950623,1,"incongruent"
"5928cbac80a86200013f3732",1,0.766,"Speed","Speed_Accuracy",-1.4394449325056,1,"incongruent"
"5928cbac80a86200013f3732",6,0.338,"Speed","Speed_Accuracy",-0.162204871509519,1,"incongruent"
"5928cbac80a86200013f3732",7,0.278,"Speed","Speed_Accuracy",0.102051692834497,1,"incongruent"
"5928cbac80a86200013f3732",1,1.333,"Accuracy","Speed",-1.4394449325056,1,"incongruent"
"5928cbac80a86200013f3732",2,1.475,"Accuracy","Speed",-0.840373503474009,1,"congruent"
"5928cbac80a86200013f3732",3,1.233,"Accuracy","Speed",-0.0651310315464111,1,"congruent"
"5928cbac80a86200013f3732",4,1.052,"Accuracy","Speed",0.601352786348446,1,"incongruent"
"5928cbac80a86200013f3732",1,1.722,"Accuracy","Accuracy",-1.4394449325056,1,"congruent"
"5928cbac80a86200013f3732",2,0.531,"Accuracy","Accuracy",-0.665550708355264,1,"incongruent"
"5928cbac80a86200013f3732",3,0.642,"Accuracy","Accuracy",-0.314556870340508,1,"congruent"
"5928cbac80a86200013f3732",4,0.699,"Accuracy","Accuracy",0.0863221354330675,1,"incongruent"
"5928cbac80a86200013f3732",5,0.751,"Accuracy","Accuracy",0.512817848974685,1,"congruent"
"5928cbac80a86200013f3732",6,0.707,"Accuracy","Accuracy",0.96268319065557,1,"incongruent"
"5928cbac80a86200013f3732",7,0.442,"Accuracy","Accuracy",1.39277423160323,1,"congruent"
"5928cbac80a86200013f3732",1,1.963,"Speed","Accuracy",-1.4394449325056,1,"incongruent"
"5928cbac80a86200013f3732",2,0.864,"Speed","Accuracy",-0.557241470248278,1,"congruent"
"5928cbac80a86200013f3732",3,0.732,"Speed","Accuracy",-0.0565921289570636,1,"incongruent"
"5928cbac80a86200013f3732",7,0.458,"Speed","Accuracy",0.811679439601846,0,"incongruent"
"5928cbac80a86200013f3732",1,0.689,"Accuracy","Speed",-1.4394449325056,1,"congruent"
"5928cbac80a86200013f3732",2,0.871,"Accuracy","Speed",-1.12979735966031,1,"incongruent"
"5928cbac80a86200013f3732",3,0.929,"Accuracy","Speed",-0.626002106888813,1,"incongruent"
"5928cbac80a86200013f3732",4,0.498,"Accuracy","Speed",-0.096140730423515,1,"incongruent"
"5928cbac80a86200013f3732",5,0.743,"Accuracy","Speed",0.240022382041322,1,"congruent"
"5928cbac80a86200013f3732",6,1.26,"Accuracy","Speed",0.686292396316165,1,"incongruent"
"5928cbac80a86200013f3732",1,0.758,"Speed","Accuracy",-1.4394449325056,1,"congruent"
"5928cbac80a86200013f3732",2,0.308,"Speed","Accuracy",-1.09878766078321,0,"incongruent"
"5928cbac80a86200013f3732",12,0.564,"Speed","Accuracy",1.2898579846053,1,"incongruent"
"5928cbac80a86200013f3732",1,1.11,"Accuracy","Speed",-1.4394449325056,1,"incongruent"
"5928cbac80a86200013f3732",2,0.942,"Accuracy","Speed",-0.940593254917403,1,"congruent"
"5928cbac80a86200013f3732",3,0.79,"Accuracy","Speed",-0.404889471417289,1,"congruent"
"5928cbac80a86200013f3732",4,1.019,"Accuracy","Speed",0.0625030913680456,1,"incongruent"
"5928cbac80a86200013f3732",5,0.672,"Accuracy","Speed",0.632811901151305,1,"congruent"
"5928cbac80a86200013f3732",2,1.505,"Speed","Accuracy",0.698876042237309,1,"incongruent"
"5928cbac80a86200013f3732",1,0.798,"Speed_Accuracy","Speed",-1.4394449325056,1,"incongruent"
"5928cbac80a86200013f3732",3,0.832,"Speed_Accuracy","Speed",-0.514996373227296,1,"congruent"
"5928cbac80a86200013f3732",4,0.565,"Speed_Accuracy","Speed",-0.0287283415602456,1,"incongruent"
"5928cbac80a86200013f3732",1,1.387,"Speed_Accuracy","Speed_Accuracy",-1.4394449325056,1,"congruent"
"5928cbac80a86200013f3732",3,1.077,"Speed_Accuracy","Speed_Accuracy",1.01706251767194,1,"incongruent"
"5928cbac80a86200013f3732",4,0.647,"Speed_Accuracy","Speed_Accuracy",1.613437451149,1,"congruent"
"5928cbac80a86200013f3732",5,1.322,"Speed_Accuracy","Speed_Accuracy",2.01656353655135,1,"incongruent"
"5928cbac80a86200013f3732",1,0.484,"Speed","Speed_Accuracy",-1.4394449325056,1,"congruent"
"5928cbac80a86200013f3732",11,0.542,"Speed","Speed_Accuracy",1.79545090107982,0,"incongruent"
"5928cbac80a86200013f3732",1,1.399,"Speed_Accuracy","Speed",-1.4394449325056,1,"congruent"
"5928cbac80a86200013f3732",2,0.833,"Speed_Accuracy","Speed",-0.810712052374171,1,"incongruent"
"5928cbac80a86200013f3732",3,0.907,"Speed_Accuracy","Speed",-0.323994604781366,1,"congruent"
"5928cbac80a86200013f3732",4,1.027,"Speed_Accuracy","Speed",0.195979621317319,1,"incongruent"
"5928cbac80a86200013f3732",5,0.875,"Speed_Accuracy","Speed",0.769883758506619,1,"incongruent"
"5928cbac80a86200013f3732",6,0.731,"Speed_Accuracy","Speed",1.27547667498114,1,"incongruent"
"5928cbac80a86200013f3732",4,0.265,"Speed","Speed_Accuracy",-0.552297895064971,1,"incongruent"
"5928cbac80a86200013f3732",5,0.366,"Speed","Speed_Accuracy",-0.32084869330108,1,"congruent"
"5928cbac80a86200013f3732",7,0.291,"Speed","Speed_Accuracy",0.176654736509849,1,"incongruent"
"5928cbac80a86200013f3732",1,1.036,"Accuracy","Speed_Accuracy",-1.4394449325056,1,"congruent"
"5928cbac80a86200013f3732",2,0.573,"Accuracy","Speed_Accuracy",-0.973850033423283,1,"incongruent"
"5928cbac80a86200013f3732",3,1.046,"Accuracy","Speed_Accuracy",-0.603980726526811,1,"congruent"
"5928cbac80a86200013f3732",4,1.007,"Accuracy","Speed_Accuracy",-0.0215376867481635,1,"incongruent"
"5928cbac80a86200013f3732",5,1.087,"Accuracy","Speed_Accuracy",0.543378131926034,1,"congruent"
"5928cbac80a86200013f3732",1,1.271,"Speed_Accuracy","Accuracy",-1.4394449325056,1,"incongruent"
"5928cbac80a86200013f3732",2,0.526,"Speed_Accuracy","Accuracy",-0.868237290870827,1,"congruent"
"5928cbac80a86200013f3732",3,0.803,"Speed_Accuracy","Accuracy",-0.519490532484847,1,"incongruent"
"5928cbac80a86200013f3732",4,0.765,"Speed_Accuracy","Accuracy",-0.0462555626646957,1,"incongruent"
"5928cbac80a86200013f3732",5,0.366,"Speed_Accuracy","Accuracy",0.409901601976761,1,"congruent"
"5928cbac80a86200013f3732",6,0.56,"Speed_Accuracy","Accuracy",0.68674181224192,1,"congruent"
"5928cbac80a86200013f3732",7,0.457,"Speed_Accuracy","Accuracy",1.05076871210358,1,"congruent"
"5928cbac80a86200013f3732",1,1.091,"Speed","Speed_Accuracy",-1.4394449325056,1,"congruent"
"5928cbac80a86200013f3732",2,0.834,"Speed","Speed_Accuracy",-0.949132157506751,1,"incongruent"
"5928cbac80a86200013f3732",3,0.772,"Speed","Speed_Accuracy",-0.46196529398819,1,"incongruent"
"5928cbac80a86200013f3732",4,0.597,"Speed","Speed_Accuracy",-0.00266221786644811,1,"incongruent"
"5928cbac80a86200013f3732",5,1.447,"Speed","Speed_Accuracy",0.377993071248146,1,"congruent"
"5928cbac80a86200013f3732",6,0.496,"Speed","Speed_Accuracy",1.1406518972546,1,"incongruent"
"5928cbac80a86200013f3732",7,0.814,"Speed","Speed_Accuracy",1.47591617786793,1,"incongruent"
"5928cbac80a86200013f3732",8,1.984,"Speed","Speed_Accuracy",1.95409472287139,1,"congruent"
"5928cbac80a86200013f3732",1,0.614,"Speed","Speed",-1.4394449325056,0,"incongruent"
"5928cbac80a86200013f3732",4,0.469,"Speed","Speed",-0.608474885784362,0,"incongruent"
"5928cbac80a86200013f3732",7,0.548,"Speed","Speed",0.574387830803138,1,"incongruent"
"5928cbac80a86200013f3732",8,0.536,"Speed","Speed",0.933021739555731,1,"incongruent"
"5928cbac80a86200013f3732",1,0.98,"Accuracy","Speed",-1.4394449325056,1,"congruent"
"5928cbac80a86200013f3732",2,0.89,"Accuracy","Speed",-0.99901732526557,1,"incongruent"
"5928cbac80a86200013f3732",3,1.232,"Accuracy","Speed",-0.486683169904722,1,"incongruent"
"5928cbac80a86200013f3732",4,1.255,"Accuracy","Speed",0.179351232064379,1,"congruent"
"5928cbac80a86200013f3732",5,1.379,"Accuracy","Speed",0.855722200325849,1,"incongruent"
"5928cbac80a86200013f3732",6,0.686,"Accuracy","Speed",1.58782074338095,1,"incongruent"
"5928cbac80a86200013f3732",2,1.727,"Speed","Accuracy",-0.811610884225681,1,"congruent"
"5928cbac80a86200013f3732",3,0.861,"Speed","Accuracy",0.0768844009922098,1,"congruent"
"5928cbac80a86200013f3732",4,0.634,"Speed","Accuracy",0.576185494506159,1,"incongruent"
"5928cbac80a86200013f3732",5,0.809,"Speed","Accuracy",0.973469172873693,1,"congruent"
"5928cbac80a86200013f3732",1,0.933,"Accuracy","Speed",-1.4394449325056,1,"incongruent"
"5928cbac80a86200013f3732",2,0.939,"Accuracy","Speed",-1.02013987377606,1,"congruent"
"5928cbac80a86200013f3732",3,0.931,"Accuracy","Speed",-0.485784338053212,1,"incongruent"
"5928cbac80a86200013f3732",4,1.931,"Accuracy","Speed",0.0449758702635956,1,"congruent"
"5928cbac80a86200013f3732",6,0.795,"Accuracy","Speed",1.49479164674964,1,"incongruent"
"5928cbac80a86200013f3732",7,0.72,"Accuracy","Speed",1.96443128916375,1,"incongruent"
"5928cbac80a86200013f3732",2,0.93,"Speed_Accuracy","Accuracy",-0.837227591993723,1,"incongruent"
"5928cbac80a86200013f3732",3,0.628,"Speed_Accuracy","Accuracy",-0.306916799602671,1,"congruent"
"5928cbac80a86200013f3732",4,2.718,"Speed_Accuracy","Accuracy",0.0876703832103329,1,"incongruent"
"5928cbac80a86200013f3732",2,1.344,"Speed_Accuracy","Speed_Accuracy",-0.84306999902854,1,"congruent"
"5928cbac80a86200013f3732",3,1.226,"Speed_Accuracy","Speed_Accuracy",-0.126701013374864,1,"incongruent"
"5928cbac80a86200013f3732",4,0.92,"Speed_Accuracy","Speed_Accuracy",0.536636893039707,1,"incongruent"
"5928cbac80a86200013f3732",1,0.737,"Speed_Accuracy","Speed_Accuracy",-1.4394449325056,1,"incongruent"
"5928cbac80a86200013f3732",3,0.666,"Speed_Accuracy","Speed_Accuracy",-0.39005874586737,1,"incongruent"
"5928cbac80a86200013f3732",5,0.754,"Speed_Accuracy","Speed_Accuracy",0.726739829634127,1,"congruent"
"5928cbac80a86200013f3732",7,0.508,"Speed_Accuracy","Speed_Accuracy",1.68893932667586,1,"congruent"
"5928cbac80a86200013f3732",4,1.16,"Speed_Accuracy","Speed_Accuracy",0.0944116220966598,1,"incongruent"
"5928cbac80a86200013f3732",6,1.428,"Speed_Accuracy","Speed_Accuracy",1.23413040981167,1,"incongruent"
"5928cbac80a86200013f3732",1,0.39,"Speed","Speed_Accuracy",-1.4394449325056,1,"congruent"
"5928cbac80a86200013f3732",2,0.414,"Speed","Speed_Accuracy",-1.2641727214611,1,"incongruent"
"5928cbac80a86200013f3732",1,1.05,"Speed","Speed",-1.4394449325056,1,"incongruent"
"5928cbac80a86200013f3732",8,0.362,"Speed","Speed",0.656181529290572,0,"incongruent"
"5928cbac80a86200013f3732",9,0.343,"Speed","Speed",0.931224075852711,1,"incongruent"
"5928cbac80a86200013f3732",11,0.361,"Speed","Speed",1.43367108084695,0,"incongruent"
"5928cbac80a86200013f3732",1,1.349,"Accuracy","Speed",-1.4394449325056,1,"congruent"
"5928cbac80a86200013f3732",2,0.814,"Accuracy","Speed",-0.833182848661927,1,"incongruent"
"5928cbac80a86200013f3732",7,0.315,"Accuracy","Speed",0.56495009636228,1,"congruent"
"5928cbac80a86200013f3732",8,0.285,"Accuracy","Speed",0.818870094413928,1,"incongruent"
"5928cbac80a86200013f3732",1,1.684,"Accuracy","Accuracy",-1.4394449325056,1,"incongruent"
"5928cbac80a86200013f3732",2,0.353,"Accuracy","Accuracy",-0.682628513533959,1,"congruent"
"5928cbac80a86200013f3732",3,1.02,"Accuracy","Accuracy",-0.411630710303616,1,"incongruent"
"5928cbac80a86200013f3732",4,0.827,"Accuracy","Accuracy",0.159127515405398,1,"congruent"
"5928cbac80a86200013f3732",5,0.709,"Accuracy","Accuracy",0.643148467443673,1,"congruent"
"5928cbac80a86200013f3732",2,1.241,"Accuracy","Accuracy",-0.975647697126303,1,"incongruent"
"5928cbac80a86200013f3732",4,0.773,"Accuracy","Accuracy",0.336197390152919,1,"incongruent"
"5928cbac80a86200013f3732",5,0.524,"Accuracy","Accuracy",0.795949882200417,1,"congruent"
"5928cbac80a86200013f3732",6,0.867,"Accuracy","Accuracy",1.14379780873489,1,"incongruent"
"5928cbac80a86200013f3732",7,0.59,"Accuracy","Accuracy",1.64579539780337,1,"congruent"
"5928cbac80a86200013f3732",1,0.793,"Speed","Accuracy",-1.4394449325056,0,"incongruent"
"5928cbac80a86200013f3732",7,0.399,"Speed","Accuracy",0.410351017902516,1,"incongruent"
"5928cbac80a86200013f3732",8,0.383,"Speed","Accuracy",0.702021953717595,1,"incongruent"
"5928cbac80a86200013f3732",10,0.361,"Speed","Accuracy",1.18963823316191,1,"incongruent"
"5928cbac80a86200013f3732",12,0.295,"Speed","Accuracy",1.76534003405423,1,"incongruent"
"5928cbac80a86200013f3732",1,1.011,"Accuracy","Speed_Accuracy",-1.4394449325056,1,"incongruent"
"5928cbac80a86200013f3732",2,1.83,"Accuracy","Speed_Accuracy",-0.985085431567161,1,"congruent"
"5928cbac80a86200013f3732",3,0.72,"Accuracy","Speed_Accuracy",-0.0503003059964918,1,"incongruent"
"5928cbac80a86200013f3732",4,0.498,"Accuracy","Speed_Accuracy",0.385633141985984,1,"congruent"
"5928cbac80a86200013f3732",1,0.802,"Accuracy","Accuracy",-1.4394449325056,1,"congruent"
"5928cbac80a86200013f3732",2,1.062,"Accuracy","Accuracy",-1.07901336004998,1,"incongruent"
"5928cbac80a86200013f3732",3,1.231,"Accuracy","Accuracy",-0.489379665459253,1,"incongruent"
"5928cbac80a86200013f3732",4,1.176,"Accuracy","Accuracy",0.176205320584093,1,"congruent"
"5928cbac80a86200013f3732",5,0.829,"Accuracy","Accuracy",0.817072430710908,1,"congruent"
"5928cbac80a86200013f3732",6,0.992,"Accuracy","Accuracy",1.30199221460069,1,"incongruent"
"5928cbac80a86200013f3732",7,0.669,"Accuracy","Accuracy",1.86016679438856,1,"incongruent"
"5928cbac80a86200013f3732",1,1.208,"Accuracy","Accuracy",-1.4394449325056,1,"incongruent"
"5928cbac80a86200013f3732",5,0.667,"Accuracy","Accuracy",0.505627194162603,1,"congruent"
"5928cbac80a86200013f3732",6,0.927,"Accuracy","Accuracy",0.917741598080057,1,"congruent"
"5928cbac80a86200013f3732",1,0.939,"Accuracy","Accuracy",-1.4394449325056,1,"incongruent"
"5928cbac80a86200013f3732",2,1.316,"Accuracy","Accuracy",-1.01744337822153,1,"congruent"
"5928cbac80a86200013f3732",3,0.464,"Accuracy","Accuracy",-0.313658038488998,1,"congruent"
"5928cbac80a86200013f3732",4,0.941,"Accuracy","Accuracy",0.00722493250016474,1,"incongruent"
"5928cbac80a86200013f3732",5,1.28,"Accuracy","Accuracy",0.542479300074524,1,"incongruent"
"5928cbac80a86200013f3732",6,1.239,"Accuracy","Accuracy",1.23008566647987,1,"incongruent"
"5928cbac80a86200013f3732",2,0.567,"Speed","Accuracy",-1.30596840255632,1,"incongruent"
"5928cbac80a86200013f3732",6,0.539,"Speed","Accuracy",-0.252986888512055,0,"incongruent"
"5928cbac80a86200013f3732",8,0.301,"Speed","Accuracy",0.391924964946555,1,"congruent"
"5928cbac80a86200013f3732",9,0.288,"Speed","Accuracy",0.639553140037632,1,"incongruent"
"5928cbac80a86200013f3732",12,0.328,"Speed","Accuracy",1.54108148710242,1,"incongruent"
"5928cbac80a86200013f3732",1,2.082,"Speed_Accuracy","Speed",-1.4394449325056,1,"incongruent"
"5928cbac80a86200013f3732",2,1.047,"Speed_Accuracy","Speed",-0.503760975083417,1,"congruent"
"5928cbac80a86200013f3732",3,0.793,"Speed_Accuracy","Speed",0.0791314806209854,1,"incongruent"
"5928cbac80a86200013f3732",1,1.034,"Accuracy","Speed_Accuracy",-1.4394449325056,1,"congruent"
"5928cbac80a86200013f3732",3,1.03,"Accuracy","Speed_Accuracy",-0.52937768285146,1,"congruent"
"5928cbac80a86200013f3732",4,1.961,"Accuracy","Speed_Accuracy",0.0458747021151059,1,"incongruent"
"5928cbac80a86200013f3732",5,0.755,"Accuracy","Speed_Accuracy",1.0395333139597,1,"congruent"
"5928cbac80a86200013f3732",1,1.348,"Accuracy","Accuracy",-1.4394449325056,1,"congruent"
"5928cbac80a86200013f3732",2,1.582,"Accuracy","Accuracy",-0.833632264587682,1,"incongruent"
"5928cbac80a86200013f3732",3,0.938,"Accuracy","Accuracy",-0.0103022886042853,1,"incongruent"
"5928cbac80a86200013f3732",4,1.204,"Accuracy","Accuracy",0.523603831192808,1,"incongruent"
"5928cbac80a86200013f3732",5,0.887,"Accuracy","Accuracy",1.17705458724077,1,"congruent"
"5928cbac80a86200013f3732",6,0.633,"Accuracy","Accuracy",1.68804049482435,1,"incongruent"
"5928cbac80a86200013f3732",7,1.237,"Accuracy","Accuracy",2.08487475726613,1,"congruent"
"5928cbac80a86200013f3732",8,0.557,"Accuracy","Accuracy",2.75315623886401,1,"incongruent"
"5928cbac80a86200013f3732",2,1.702,"Speed_Accuracy","Accuracy",-0.969355874165731,1,"congruent"
"5928cbac80a86200013f3732",3,0.655,"Speed_Accuracy","Accuracy",-0.0920959870917189,1,"congruent"
"5928cbac80a86200013f3732",4,0.955,"Speed_Accuracy","Accuracy",0.314625425716673,1,"incongruent"
"5928cbac80a86200013f3732",5,1.008,"Speed_Accuracy","Accuracy",0.856171616251604,1,"incongruent"
"5928cbac80a86200013f3732",3,0.283,"Speed","Speed_Accuracy",-0.887562175678298,1,"incongruent"
"5928cbac80a86200013f3732",4,0.389,"Speed","Speed_Accuracy",-0.648023487250814,1,"congruent"
"5928cbac80a86200013f3732",1,1.455,"Speed_Accuracy","Speed",-1.4394449325056,1,"incongruent"
"5928cbac80a86200013f3732",2,0.771,"Speed_Accuracy","Speed",-0.785544760531883,1,"congruent"
"5928cbac80a86200013f3732",4,1.391,"Speed_Accuracy","Speed",0.195979621317319,1,"incongruent"
"5928cbac80a86200013f3732",5,1.291,"Speed_Accuracy","Speed",0.933471155481486,1,"congruent"
"5928cbac80a86200013f3732",1,1.308,"Speed_Accuracy","Speed_Accuracy",-1.4394449325056,1,"congruent"
"5928cbac80a86200013f3732",2,1.015,"Speed_Accuracy","Speed_Accuracy",-0.851608901617887,1,"incongruent"
"5928cbac80a86200013f3732",3,0.659,"Speed_Accuracy","Speed_Accuracy",-0.283097755537649,1,"congruent"
"5928cbac80a86200013f3732",4,1.235,"Speed_Accuracy","Speed_Accuracy",0.125421320973764,1,"incongruent"
"5928cbac80a86200013f3732",5,0.977,"Speed_Accuracy","Speed_Accuracy",0.792803970720131,1,"congruent"
"5928cbac80a86200013f3732",6,1.153,"Speed_Accuracy","Speed_Accuracy",1.34423731162167,1,"incongruent"
"5928cbac80a86200013f3732",7,1.424,"Speed_Accuracy","Speed_Accuracy",1.97476785545612,1,"incongruent"
"5928cbac80a86200013f3732",1,1.414,"Accuracy","Speed_Accuracy",-1.4394449325056,1,"incongruent"
"5928cbac80a86200013f3732",2,1.23,"Accuracy","Speed_Accuracy",-0.803970813487844,1,"congruent"
"5928cbac80a86200013f3732",3,0.61,"Accuracy","Speed_Accuracy",-0.138835243370252,1,"congruent"
"5928cbac80a86200013f3732",4,1.162,"Accuracy","Speed_Accuracy",0.247662452779159,1,"incongruent"
"5928cbac80a86200013f3732",5,0.848,"Accuracy","Speed_Accuracy",0.882237739945402,1,"congruent"
"5928cbac80a86200013f3732",6,0.869,"Accuracy","Speed_Accuracy",1.37569642642453,1,"incongruent"
"5928cbac80a86200013f3732",7,0.568,"Accuracy","Speed_Accuracy",1.87859284734452,1,"incongruent"
"5928cbac80a86200013f3732",1,1.322,"Speed_Accuracy","Accuracy",-1.4394449325056,1,"congruent"
"5928cbac80a86200013f3732",2,0.924,"Speed_Accuracy","Accuracy",-0.845317078657316,1,"incongruent"
"5928cbac80a86200013f3732",3,0.397,"Speed_Accuracy","Accuracy",-0.317702781820794,1,"incongruent"
"5928cbac80a86200013f3732",4,0.603,"Speed_Accuracy","Accuracy",-0.0269306778572251,1,"incongruent"
"5928cbac80a86200013f3732",5,0.569,"Speed_Accuracy","Accuracy",0.3564211068119,1,"congruent"
"5928cbac80a86200013f3732",6,0.821,"Speed_Accuracy","Accuracy",0.724492750005351,1,"congruent"
"5928cbac80a86200013f3732",7,0.409,"Speed_Accuracy","Accuracy",1.20581720648909,1,"congruent"
"5928cbac80a86200013f3732",8,1.097,"Speed_Accuracy","Accuracy",1.50198230156173,1,"incongruent"
"5928cbac80a86200013f3732",3,0.324,"Speed","Speed_Accuracy",-0.836778176067968,1,"incongruent"
"5928cbac80a86200013f3732",4,0.316,"Speed","Speed_Accuracy",-0.578813434684524,1,"incongruent"
"5928cbac80a86200013f3732",5,0.352,"Speed","Speed_Accuracy",-0.324444020707121,1,"congruent"
"5928cbac80a86200013f3732",6,0.394,"Speed","Speed_Accuracy",-0.0538956334025329,1,"congruent"
"5928cbac80a86200013f3732",7,0.891,"Speed","Speed_Accuracy",0.23552822278377,1,"incongruent"
"5928cbac80a86200013f3732",8,0.455,"Speed","Speed_Accuracy",0.748311794070373,1,"congruent"
"5928cbac80a86200013f3732",1,1.492,"Speed_Accuracy","Speed",-1.4394449325056,1,"incongruent"
"5928cbac80a86200013f3732",3,0.997,"Speed_Accuracy","Speed",0.529446238227625,1,"congruent"
"5928cbac80a86200013f3732",4,0.528,"Speed_Accuracy","Speed",1.08986789764427,1,"incongruent"
"5974561734b844000168d1e0",1,1.017,"Accuracy","Accuracy",-1.4394449325056,1,"congruent"
"5974561734b844000168d1e0",2,0.476,"Accuracy","Accuracy",-0.98238893601263,1,"incongruent"
"5974561734b844000168d1e0",3,0.617,"Accuracy","Accuracy",-0.656112973914406,1,"incongruent"
"5974561734b844000168d1e0",4,0.422,"Accuracy","Accuracy",-0.266469366284709,1,"congruent"
"5974561734b844000168d1e0",5,0.579,"Accuracy","Accuracy",0.0355381358227379,1,"congruent"
"5974561734b844000168d1e0",6,0.614,"Accuracy","Accuracy",0.40810393827374,1,"incongruent"
"5974561734b844000168d1e0",7,0.577,"Accuracy","Accuracy",0.796399298126172,1,"congruent"
"5974561734b844000168d1e0",8,0.898,"Accuracy","Accuracy",1.16806626872566,1,"incongruent"
"5974561734b844000168d1e0",9,0.737,"Accuracy","Accuracy",1.68399575149255,1,"incongruent"
"5974561734b844000168d1e0",1,0.41,"Speed","Accuracy",-1.4394449325056,1,"congruent"
"5974561734b844000168d1e0",2,0.301,"Speed","Accuracy",-1.25518440294599,1,"incongruent"
"5974561734b844000168d1e0",4,0.33,"Speed","Accuracy",-0.768466955353189,0,"incongruent"
"5974561734b844000168d1e0",5,0.289,"Speed","Accuracy",-0.507805718415213,1,"incongruent"
"5974561734b844000168d1e0",6,0.314,"Speed","Accuracy",-0.265570534433199,1,"incongruent"
"5974561734b844000168d1e0",9,0.288,"Speed","Accuracy",0.487201141206643,1,"congruent"
"5974561734b844000168d1e0",10,0.298,"Speed","Accuracy",0.728986909262903,0,"incongruent"
"5974561734b844000168d1e0",1,0.852,"Speed_Accuracy","Speed",-1.4394449325056,1,"congruent"
"5974561734b844000168d1e0",2,0.415,"Speed_Accuracy","Speed",-1.05654256376223,1,"incongruent"
"5974561734b844000168d1e0",3,0.461,"Speed_Accuracy","Speed",-0.757680973135065,1,"incongruent"
"5974561734b844000168d1e0",5,0.626,"Speed_Accuracy","Speed",-0.115915031156741,1,"incongruent"
"5974561734b844000168d1e0",9,0.301,"Speed_Accuracy","Speed",1.04088156173696,0,"incongruent"
"5974561734b844000168d1e0",3,0.445,"Speed_Accuracy","Speed_Accuracy",-0.637237505032691,1,"congruent"
"5974561734b844000168d1e0",4,0.437,"Speed_Accuracy","Speed_Accuracy",-0.324893436632876,0,"incongruent"
"5974561734b844000168d1e0",1,0.886,"Accuracy","Speed_Accuracy",-1.4394449325056,1,"congruent"
"5974561734b844000168d1e0",2,0.591,"Accuracy","Speed_Accuracy",-1.04126242228655,1,"incongruent"
"5974561734b844000168d1e0",3,0.49,"Accuracy","Speed_Accuracy",-0.663303628726488,1,"congruent"
"5974561734b844000168d1e0",4,0.468,"Accuracy","Speed_Accuracy",-0.330735843667693,1,"incongruent"
"5974561734b844000168d1e0",5,0.539,"Accuracy","Speed_Accuracy",-0.00805520897550966,1,"congruent"
"5974561734b844000168d1e0",6,0.669,"Accuracy","Speed_Accuracy",0.346533956445287,1,"incongruent"
"5974561734b844000168d1e0",7,0.5,"Accuracy","Speed_Accuracy",0.759547192214251,1,"congruent"
"5974561734b844000168d1e0",8,0.673,"Accuracy","Speed_Accuracy",1.0966091365306,1,"incongruent"
"5974561734b844000168d1e0",9,0.5,"Accuracy","Speed_Accuracy",1.51142003600258,1,"congruent"
"5974561734b844000168d1e0",1,0.855,"Accuracy","Accuracy",-1.4394449325056,1,"congruent"
"5974561734b844000168d1e0",2,0.459,"Accuracy","Accuracy",-1.05519431598496,0,"incongruent"
"5974561734b844000168d1e0",3,0.821,"Accuracy","Accuracy",-0.736558424624574,1,"incongruent"
"5974561734b844000168d1e0",4,0.52,"Accuracy","Accuracy",-0.255233968140831,1,"congruent"
"5974561734b844000168d1e0",5,0.867,"Accuracy","Accuracy",0.0908162946906188,0,"incongruent"
"5974561734b844000168d1e0",6,0.537,"Accuracy","Accuracy",0.592813883759098,1,"congruent"
"5974561734b844000168d1e0",7,0.559,"Accuracy","Accuracy",0.946504217328385,1,"congruent"
"5974561734b844000168d1e0",1,0.586,"Speed_Accuracy","Accuracy",-1.4394449325056,1,"congruent"
"5974561734b844000168d1e0",6,0.36,"Speed_Accuracy","Accuracy",0.506076610088358,1,"incongruent"
"5974561734b844000168d1e0",2,0.624,"Speed_Accuracy","Speed_Accuracy",1.16806626872566,1,"congruent"
"5974561734b844000168d1e0",3,0.456,"Speed_Accuracy","Speed_Accuracy",1.56085578783565,1,"congruent"
"5974561734b844000168d1e0",4,0.472,"Speed_Accuracy","Speed_Accuracy",1.87814343141877,1,"incongruent"
"5974561734b844000168d1e0",5,0.489,"Speed_Accuracy","Speed_Accuracy",2.20262172981397,1,"congruent"
"5974561734b844000168d1e0",6,0.658,"Speed_Accuracy","Speed_Accuracy",2.53474009894701,1,"incongruent"
"5974561734b844000168d1e0",1,0.852,"Accuracy","Speed_Accuracy",-1.4394449325056,1,"incongruent"
"5974561734b844000168d1e0",3,0.309,"Speed","Accuracy",-0.830935769033152,0,"incongruent"
"5974561734b844000168d1e0",6,0.331,"Speed","Accuracy",-0.0565921289570636,0,"incongruent"
"5974561734b844000168d1e0",9,0.277,"Speed","Accuracy",0.822465421819969,0,"incongruent"
"5974561734b844000168d1e0",10,0.325,"Speed","Accuracy",1.05930761469292,1,"incongruent"
"5974561734b844000168d1e0",11,0.287,"Speed","Accuracy",1.31772177200212,1,"incongruent"
"5974561734b844000168d1e0",1,0.823,"Speed_Accuracy","Speed",-1.4394449325056,1,"incongruent"
"5974561734b844000168d1e0",2,0.482,"Speed_Accuracy","Speed",-1.06957562560913,1,"congruent"
"5974561734b844000168d1e0",3,0.464,"Speed_Accuracy","Speed",-0.740603167956371,1,"congruent"
"5974561734b844000168d1e0",4,0.708,"Speed_Accuracy","Speed",-0.419720196967208,0,"incongruent"
"5974561734b844000168d1e0",6,0.493,"Speed_Accuracy","Speed",0.347882204222553,1,"incongruent"
"5974561734b844000168d1e0",8,0.483,"Speed_Accuracy","Speed",1.00223179212202,1,"incongruent"
"5974561734b844000168d1e0",1,0.542,"Accuracy","Speed_Accuracy",-1.4394449325056,1,"congruent"
"5974561734b844000168d1e0",2,1.186,"Accuracy","Speed_Accuracy",-1.19586150074632,1,"incongruent"
"5974561734b844000168d1e0",3,0.577,"Accuracy","Speed_Accuracy",-0.550500231361951,1,"incongruent"
"5974561734b844000168d1e0",4,0.65,"Accuracy","Speed_Accuracy",-0.178833260762459,1,"congruent"
"5974561734b844000168d1e0",5,0.523,"Accuracy","Speed_Accuracy",0.225641072417158,1,"congruent"
"5974561734b844000168d1e0",6,0.971,"Accuracy","Speed_Accuracy",0.573039583025873,1,"incongruent"
"5974561734b844000168d1e0",7,0.686,"Accuracy","Speed_Accuracy",1.12177642837289,1,"incongruent"
"5974561734b844000168d1e0",1,0.75,"Speed_Accuracy","Accuracy",-1.4394449325056,1,"incongruent"
"5974561734b844000168d1e0",2,0.597,"Speed_Accuracy","Accuracy",-1.10238298818925,1,"congruent"
"5974561734b844000168d1e0",3,0.356,"Speed_Accuracy","Accuracy",-0.721727699074655,1,"incongruent"
"5974561734b844000168d1e0",4,0.621,"Speed_Accuracy","Accuracy",-0.449381648067047,1,"incongruent"
"5974561734b844000168d1e0",5,0.461,"Speed_Accuracy","Accuracy",-0.057940376734329,1,"congruent"
"5974561734b844000168d1e0",6,0.395,"Speed_Accuracy","Accuracy",0.261594346477568,1,"incongruent"
"5974561734b844000168d1e0",7,0.594,"Speed_Accuracy","Accuracy",0.551467618589626,1,"congruent"
"5974561734b844000168d1e0",8,0.541,"Speed_Accuracy","Accuracy",0.930774659926956,1,"congruent"
"5974561734b844000168d1e0",9,0.543,"Speed_Accuracy","Accuracy",1.28626265719926,1,"congruent"
"5974561734b844000168d1e0",3,0.457,"Speed","Speed_Accuracy",-1.00620798007765,1,"congruent"
"5974561734b844000168d1e0",4,0.285,"Speed","Speed_Accuracy",-0.688470920568776,1,"incongruent"
"5974561734b844000168d1e0",5,0.285,"Speed","Speed_Accuracy",-0.448033400289781,1,"incongruent"
"5974561734b844000168d1e0",6,0.365,"Speed","Speed_Accuracy",-0.207595880010787,1,"congruent"
"5974561734b844000168d1e0",7,0.517,"Speed","Speed_Accuracy",0.0687949143286175,1,"congruent"
"5974561734b844000168d1e0",10,0.285,"Speed","Speed_Accuracy",1.01796134952345,0,"incongruent"
"5974561734b844000168d1e0",3,0.267,"Speed_Accuracy","Speed",-0.959019307873363,1,"congruent"
"5974561734b844000168d1e0",4,0.326,"Speed_Accuracy","Speed",-0.726671274257962,1,"incongruent"
"5974561734b844000168d1e0",5,0.607,"Speed_Accuracy","Speed",-0.467807701023007,0,"incongruent"
"5974561734b844000168d1e0",7,0.277,"Speed_Accuracy","Speed",0.11283767505262,1,"congruent"
"5974561734b844000168d1e0",11,0.421,"Speed_Accuracy","Speed",1.15952736613632,0,"incongruent"
"5974561734b844000168d1e0",12,0.357,"Speed_Accuracy","Speed",1.46108545231801,1,"congruent"
"5974561734b844000168d1e0",1,0.67,"Accuracy","Speed_Accuracy",-1.4394449325056,1,"congruent"
"5974561734b844000168d1e0",2,0.582,"Accuracy","Speed_Accuracy",-1.13833626224966,1,"incongruent"
"5974561734b844000168d1e0",3,0.49,"Accuracy","Speed_Accuracy",-0.764422212021392,1,"congruent"
"5974561734b844000168d1e0",4,0.344,"Accuracy","Speed_Accuracy",-0.431854426962597,1,"incongruent"
"5974561734b844000168d1e0",5,0.518,"Accuracy","Speed_Accuracy",-0.16490136706405,1,"congruent"
"5974561734b844000168d1e0",6,0.602,"Accuracy","Speed_Accuracy",0.18025006391589,1,"incongruent"
"5974561734b844000168d1e0",7,0.619,"Accuracy","Speed_Accuracy",0.56315243265926,1,"congruent"
"5974561734b844000168d1e0",8,0.454,"Accuracy","Speed_Accuracy",0.953694872140467,1,"incongruent"
"5974561734b844000168d1e0",10,0.606,"Accuracy","Speed_Accuracy",1.69523114963643,1,"incongruent"
"5974561734b844000168d1e0",1,0.514,"Speed","Accuracy",-1.4394449325056,1,"congruent"
"5974561734b844000168d1e0",4,0.277,"Speed","Accuracy",-0.712739380559553,1,"incongruent"
"5974561734b844000168d1e0",5,0.281,"Speed","Accuracy",-0.475897187686599,1,"congruent"
"5974561734b844000168d1e0",8,0.3,"Speed","Accuracy",0.230135231674709,0,"incongruent"
"5974561734b844000168d1e0",5,0.251,"Speed","Speed",-0.627350354666078,1,"incongruent"
"5974561734b844000168d1e0",6,0.253,"Speed","Speed",-0.402192975862758,1,"congruent"
"5974561734b844000168d1e0",9,0.285,"Speed","Speed",0.290356965725896,1,"incongruent"
"5974561734b844000168d1e0",1,0.868,"Speed_Accuracy","Speed",-1.4394449325056,1,"congruent"
"5974561734b844000168d1e0",2,0.596,"Speed_Accuracy","Speed",-1.04935190895014,1,"incongruent"
"5974561734b844000168d1e0",3,0.346,"Speed_Accuracy","Speed",-0.669146035761305,1,"incongruent"
"5974561734b844000168d1e0",5,0.291,"Speed_Accuracy","Speed",-0.114566783379475,0,"incongruent"
"5974561734b844000168d1e0",6,0.516,"Speed_Accuracy","Speed",0.12856723245405,1,"incongruent"
"5974561734b844000168d1e0",7,0.279,"Speed_Accuracy","Speed",0.472819831582479,1,"incongruent"
"5974561734b844000168d1e0",12,0.284,"Speed_Accuracy","Speed",1.77882251182688,1,"congruent"
"5974561734b844000168d1e0",13,0.266,"Speed_Accuracy","Speed",2.01881061618012,1,"incongruent"
"5974561734b844000168d1e0",1,0.52,"Accuracy","Speed_Accuracy",-1.4394449325056,1,"congruent"
"5974561734b844000168d1e0",2,0.518,"Accuracy","Speed_Accuracy",-1.20574865111293,1,"incongruent"
"5974561734b844000168d1e0",6,0.372,"Accuracy","Speed_Accuracy",0.222944576862627,1,"incongruent"
"5974561734b844000168d1e0",7,0.772,"Accuracy","Speed_Accuracy",0.502481282682317,1,"incongruent"
"5974561734b844000168d1e0",8,0.643,"Accuracy","Speed_Accuracy",0.96178435880406,1,"incongruent"
"5974561734b844000168d1e0",2,0.307,"Speed_Accuracy","Accuracy",-0.952278068987036,1,"congruent"
"5974561734b844000168d1e0",3,0.467,"Speed_Accuracy","Accuracy",-0.701953398341429,1,"congruent"
"5974561734b844000168d1e0",4,0.664,"Speed_Accuracy","Accuracy",-0.379722179575002,1,"incongruent"
"5974561734b844000168d1e0",5,0.491,"Speed_Accuracy","Accuracy",0.0310439765651866,1,"congruent"
"5974561734b844000168d1e0",6,0.509,"Speed_Accuracy","Accuracy",0.364061177549737,1,"incongruent"
"5974561734b844000168d1e0",8,0.609,"Speed_Accuracy","Accuracy",1.03189324322186,1,"incongruent"
"5974561734b844000168d1e0",1,0.871,"Speed","Speed_Accuracy",-1.4394449325056,1,"incongruent"
"5974561734b844000168d1e0",2,0.569,"Speed","Speed_Accuracy",-1.04800366117288,1,"congruent"
"5974561734b844000168d1e0",3,0.533,"Speed","Speed_Accuracy",-0.679932017979428,1,"congruent"
"5974561734b844000168d1e0",4,0.464,"Speed","Speed_Accuracy",-0.328039348113162,1,"incongruent"
"5974561734b844000168d1e0",6,0.475,"Speed","Speed_Accuracy",0.307434770904591,1,"incongruent"
"5974561734b844000168d1e0",7,0.685,"Speed","Speed_Accuracy",0.63326131707706,1,"incongruent"
"5974561734b844000168d1e0",8,0.917,"Speed","Speed_Accuracy",1.05346520765811,1,"incongruent"
"5974561734b844000168d1e0",1,1.175,"Accuracy","Speed",-1.4394449325056,0,"incongruent"
"5974561734b844000168d1e0",2,0.64,"Accuracy","Speed",-0.91138121974332,1,"congruent"
"5974561734b844000168d1e0",3,0.833,"Accuracy","Speed",-0.511401045821255,1,"congruent"
"5974561734b844000168d1e0",7,0.649,"Accuracy","Speed",2.62057854076624,1,"incongruent"
"5974561734b844000168d1e0",1,1.172,"Speed_Accuracy","Accuracy",-1.4394449325056,1,"incongruent"
"5974561734b844000168d1e0",3,0.465,"Speed_Accuracy","Accuracy",-0.553196726916482,1,"congruent"
"5974561734b844000168d1e0",5,0.469,"Speed_Accuracy","Accuracy",1.328957170146,1,"congruent"
"5974561734b844000168d1e0",1,0.526,"Speed","Speed_Accuracy",-1.4394449325056,1,"incongruent"
"5974561734b844000168d1e0",4,0.537,"Speed","Speed_Accuracy",-0.683527345385469,1,"incongruent"
"5974561734b844000168d1e0",1,0.615,"Accuracy","Speed",-1.4394449325056,1,"congruent"
"5974561734b844000168d1e0",3,0.405,"Accuracy","Speed",-0.77475877831376,1,"congruent"
"5974561734b844000168d1e0",4,0.554,"Accuracy","Speed",-0.480391346944151,1,"incongruent"
"5974561734b844000168d1e0",8,0.491,"Accuracy","Speed",0.830105492557807,1,"incongruent"
"5974561734b844000168d1e0",9,0.321,"Accuracy","Speed",1.16312269354236,1,"congruent"
"5974561734b844000168d1e0",1,0.779,"Speed_Accuracy","Accuracy",-1.4394449325056,1,"congruent"
"5974561734b844000168d1e0",3,0.387,"Speed_Accuracy","Accuracy",-0.719031203520124,1,"congruent"
"5974561734b844000168d1e0",4,0.55,"Speed_Accuracy","Accuracy",-0.432753258814107,1,"incongruent"
"5974561734b844000168d1e0",5,0.506,"Speed_Accuracy","Accuracy",-0.0732205182100034,1,"congruent"
"5974561734b844000168d1e0",6,1.913,"Speed_Accuracy","Accuracy",0.266537921660874,0,"incongruent"
"5974561734b844000168d1e0",1,0.836,"Speed_Accuracy","Speed_Accuracy",-1.4394449325056,1,"congruent"
"5974561734b844000168d1e0",2,0.356,"Speed_Accuracy","Speed_Accuracy",-1.06373321857431,1,"incongruent"
"5974561734b844000168d1e0",3,0.324,"Speed_Accuracy","Speed_Accuracy",-0.7913871675667,1,"congruent"
"5974561734b844000168d1e0",7,0.458,"Speed_Accuracy","Speed_Accuracy",0.288109886097121,1,"incongruent"
"5974561734b844000168d1e0",8,0.52,"Speed_Accuracy","Speed_Accuracy",0.606296361531752,1,"incongruent"
"5974561734b844000168d1e0",10,0.4,"Speed_Accuracy","Speed_Accuracy",1.31862060385363,0,"incongruent"
"5974561734b844000168d1e0",1,0.918,"Accuracy","Speed_Accuracy",-1.4394449325056,1,"incongruent"
"5974561734b844000168d1e0",2,0.424,"Accuracy","Speed_Accuracy",-1.02688111266239,1,"congruent"
"5974561734b844000168d1e0",3,0.483,"Accuracy","Speed_Accuracy",-0.723974778703431,1,"incongruent"
"5974561734b844000168d1e0",4,0.641,"Accuracy","Speed_Accuracy",-0.394552905124921,1,"congruent"
"5974561734b844000168d1e0",6,0.627,"Accuracy","Speed_Accuracy",0.323164328306021,1,"congruent"
"5974561734b844000168d1e0",7,0.481,"Accuracy","Speed_Accuracy",0.717302095193269,1,"congruent"
"5974561734b844000168d1e0",1,0.529,"Accuracy","Accuracy",-1.4394449325056,1,"congruent"
"5974561734b844000168d1e0",2,0.73,"Accuracy","Accuracy",-1.20170390778113,0,"incongruent"
"5974561734b844000168d1e0",3,0.498,"Accuracy","Accuracy",-0.761276300541107,1,"incongruent"
"5974561734b844000168d1e0",4,0.61,"Accuracy","Accuracy",-0.42511318807627,1,"incongruent"
"5974561734b844000168d1e0",5,0.515,"Accuracy","Accuracy",-0.0386154919268585,1,"congruent"
"5974561734b844000168d1e0",6,0.549,"Accuracy","Accuracy",0.305187691275816,1,"congruent"
"5974561734b844000168d1e0",7,0.564,"Accuracy","Accuracy",0.664271015954164,1,"incongruent"
"5974561734b844000168d1e0",1,1.402,"Accuracy","Accuracy",-1.4394449325056,1,"incongruent"
"5974561734b844000168d1e0",2,0.697,"Accuracy","Accuracy",-0.809363804596905,1,"congruent"
"5974561734b844000168d1e0",5,0.434,"Accuracy","Accuracy",0.306535939053081,0,"incongruent"
"5974561734b844000168d1e0",6,0.426,"Accuracy","Accuracy",0.613936432269589,1,"incongruent"
"5974561734b844000168d1e0",10,0.327,"Accuracy","Accuracy",1.7316338396226,0,"incongruent"
"5974561734b844000168d1e0",1,0.791,"Speed_Accuracy","Accuracy",-1.4394449325056,0,"incongruent"
"5974561734b844000168d1e0",2,0.45,"Speed_Accuracy","Accuracy",-1.08395693523329,1,"congruent"
"5974561734b844000168d1e0",3,0.656,"Speed_Accuracy","Accuracy",-0.769365787204699,1,"incongruent"
"5974561734b844000168d1e0",4,0.398,"Speed_Accuracy","Accuracy",-0.362194958470552,1,"incongruent"
"5974561734b844000168d1e0",5,0.575,"Speed_Accuracy","Accuracy",-0.0709734385812278,1,"congruent"
"5974561734b844000168d1e0",6,0.728,"Speed_Accuracy","Accuracy",0.299794700166754,1,"incongruent"
"5974561734b844000168d1e0",7,0.539,"Speed_Accuracy","Accuracy",0.739323475555271,1,"congruent"
"5974561734b844000168d1e0",8,0.724,"Speed_Accuracy","Accuracy",1.09391264097607,0,"incongruent"
"5974561734b844000168d1e0",1,0.36,"Speed","Accuracy",-1.4394449325056,1,"congruent"
"5974561734b844000168d1e0",2,0.333,"Speed","Accuracy",-1.27765519923375,0,"incongruent"
"5974561734b844000168d1e0",6,0.345,"Speed","Accuracy",-0.170743774098867,0,"incongruent"
"5974561734b844000168d1e0",7,0.275,"Speed","Accuracy",0.0966587017254355,1,"incongruent"
"5974561734b844000168d1e0",9,0.554,"Speed","Accuracy",0.628317741893754,1,"incongruent"
"5974561734b844000168d1e0",10,0.568,"Speed","Accuracy",0.989648146200878,1,"congruent"
"5974561734b844000168d1e0",1,1.024,"Speed_Accuracy","Speed",-1.4394449325056,1,"incongruent"
"5974561734b844000168d1e0",3,0.522,"Speed_Accuracy","Speed",-0.650719982805345,1,"congruent"
"5974561734b844000168d1e0",4,0.645,"Speed_Accuracy","Speed",-0.303770888122385,1,"incongruent"
"5974561734b844000168d1e0",6,0.672,"Speed_Accuracy","Speed",0.446304291962926,1,"incongruent"
"5974561734b844000168d1e0",7,0.407,"Speed_Accuracy","Speed",0.860665775509155,1,"incongruent"
"5974561734b844000168d1e0",8,0.781,"Speed_Accuracy","Speed",1.15593203873028,1,"congruent"
"5974561734b844000168d1e0",9,0.353,"Speed_Accuracy","Speed",1.61927985818381,1,"congruent"
"5974561734b844000168d1e0",10,0.551,"Speed_Accuracy","Speed",1.89027766141416,1,"congruent"
"5974561734b844000168d1e0",1,0.612,"Speed_Accuracy","Speed_Accuracy",-1.4394449325056,1,"incongruent"
"5974561734b844000168d1e0",2,0.468,"Speed_Accuracy","Speed_Accuracy",-1.16440238594346,1,"congruent"
"5974561734b844000168d1e0",3,0.54,"Speed_Accuracy","Speed_Accuracy",-0.841721751251275,1,"congruent"
"5974561734b844000168d1e0",5,0.652,"Speed_Accuracy","Speed_Accuracy",-0.13074575670666,1,"incongruent"
"5974561734b844000168d1e0",6,0.924,"Speed_Accuracy","Speed_Accuracy",0.274627408324467,1,"incongruent"
"5974561734b844000168d1e0",7,0.636,"Speed_Accuracy","Speed_Accuracy",0.802241705160989,1,"incongruent"
"5974561734b844000168d1e0",8,0.49,"Speed_Accuracy","Speed_Accuracy",1.20042421538003,1,"congruent"
"5974561734b844000168d1e0",1,1.11,"Speed_Accuracy","Speed_Accuracy",-1.4394449325056,1,"incongruent"
"5974561734b844000168d1e0",2,0.454,"Speed_Accuracy","Speed_Accuracy",-0.940593254917403,1,"congruent"
"5974561734b844000168d1e0",3,0.496,"Speed_Accuracy","Speed_Accuracy",-0.624204443185792,1,"congruent"
"5974561734b844000168d1e0",4,0.596,"Speed_Accuracy","Speed_Accuracy",-0.288940162572466,1,"incongruent"
"5974561734b844000168d1e0",5,0.491,"Speed_Accuracy","Speed_Accuracy",0.0912657106163739,1,"congruent"
"5974561734b844000168d1e0",6,0.498,"Speed_Accuracy","Speed_Accuracy",0.424282911600925,1,"incongruent"
"5974561734b844000168d1e0",7,0.593,"Speed_Accuracy","Speed_Accuracy",0.760446024065762,1,"congruent"
"5974561734b844000168d1e0",8,0.64,"Speed_Accuracy","Speed_Accuracy",1.13930364947734,1,"incongruent"
"5974561734b844000168d1e0",9,0.566,"Speed_Accuracy","Speed_Accuracy",1.5392838233994,1,"incongruent"
"5974561734b844000168d1e0",2,0.366,"Speed","Speed_Accuracy",-1.25473498702024,1,"congruent"
"5974561734b844000168d1e0",4,0.375,"Speed","Speed_Accuracy",-0.716334707965594,1,"congruent"
"5974561734b844000168d1e0",5,1.356,"Speed","Speed_Accuracy",-0.435449754368638,1,"congruent"
"5974561734b844000168d1e0",6,0.398,"Speed","Speed_Accuracy",0.2863122223941,1,"incongruent"
"5974561734b844000168d1e0",7,0.261,"Speed","Speed_Accuracy",0.577533742283424,1,"congruent"
"5974561734b844000168d1e0",8,0.378,"Speed","Speed_Accuracy",0.807185280344295,1,"incongruent"
"5974561734b844000168d1e0",1,0.858,"Speed_Accuracy","Speed",-1.4394449325056,1,"congruent"
"5974561734b844000168d1e0",5,0.443,"Speed_Accuracy","Speed",0.0544136047044533,1,"congruent"
"5974561734b844000168d1e0",6,0.754,"Speed_Accuracy","Speed",0.365858841252758,1,"incongruent"
"5974561734b844000168d1e0",9,0.297,"Speed_Accuracy","Speed",1.4080543730789,0,"incongruent"
"5974561734b844000168d1e0",1,1.265,"Accuracy","Speed_Accuracy",-1.4394449325056,1,"incongruent"
"5974561734b844000168d1e0",2,0.514,"Accuracy","Speed_Accuracy",-0.870933786425358,1,"congruent"
"5974561734b844000168d1e0",3,0.593,"Accuracy","Speed_Accuracy",-0.527580019148439,1,"congruent"
"5974561734b844000168d1e0",4,0.613,"Accuracy","Speed_Accuracy",-0.148722393736865,1,"incongruent"
"5974561734b844000168d1e0",5,0.461,"Accuracy","Speed_Accuracy",0.239123550189811,1,"congruent"
"5974561734b844000168d1e0",6,0.577,"Accuracy","Speed_Accuracy",0.558658273401708,1,"incongruent"
"5974561734b844000168d1e0",7,0.666,"Accuracy","Speed_Accuracy",0.930325244001201,1,"incongruent"
"5974561734b844000168d1e0",1,0.747,"Accuracy","Accuracy",-1.4394449325056,1,"incongruent"
"5974561734b844000168d1e0",2,0.822,"Accuracy","Accuracy",-1.10373123596652,1,"congruent"
"5974561734b844000168d1e0",3,0.569,"Accuracy","Accuracy",-0.621957363557016,1,"incongruent"
"5974561734b844000168d1e0",4,0.522,"Accuracy","Accuracy",-0.253885720363565,1,"incongruent"
"5974561734b844000168d1e0",5,0.521,"Accuracy","Accuracy",0.0930633743193944,1,"congruent"
"5974561734b844000168d1e0",7,0.637,"Accuracy","Accuracy",0.813477103304867,1,"incongruent"
"5974561734b844000168d1e0",9,0.464,"Accuracy","Accuracy",1.6264705129959,1,"incongruent"
"5974561734b844000168d1e0",10,0.632,"Accuracy","Accuracy",1.94735348398506,1,"incongruent"
"5974561734b844000168d1e0",11,0.609,"Accuracy","Accuracy",2.34373833050108,1,"congruent"
"5974561734b844000168d1e0",1,0.618,"Accuracy","Accuracy",-1.4394449325056,1,"incongruent"
"5974561734b844000168d1e0",2,0.63,"Accuracy","Accuracy",-1.16170589038893,1,"congruent"
"5974561734b844000168d1e0",3,0.499,"Accuracy","Accuracy",-0.766219875724413,1,"congruent"
"5974561734b844000168d1e0",4,0.536,"Accuracy","Accuracy",-0.429607347333821,1,"incongruent"
"5974561734b844000168d1e0",5,0.652,"Accuracy","Accuracy",-0.0763664296902893,1,"congruent"
"5974561734b844000168d1e0",6,0.663,"Accuracy","Accuracy",0.329006735340837,1,"incongruent"
"5974561734b844000168d1e0",7,0.679,"Accuracy","Accuracy",0.739323475555271,1,"incongruent"
"5974561734b844000168d1e0",8,0.823,"Accuracy","Accuracy",1.15683087058179,1,"incongruent"
"5974561734b844000168d1e0",9,0.562,"Accuracy","Accuracy",1.63905415891704,1,"congruent"
"5974561734b844000168d1e0",1,0.368,"Speed","Accuracy",-1.4394449325056,0,"incongruent"
"5974561734b844000168d1e0",4,0.379,"Speed","Accuracy",-0.73790667240184,1,"incongruent"
"5974561734b844000168d1e0",10,0.279,"Speed","Accuracy",0.648092042626979,1,"incongruent"
"5974561734b844000168d1e0",11,0.286,"Speed","Accuracy",0.885833067351443,1,"incongruent"
"5974561734b844000168d1e0",12,0.291,"Speed","Accuracy",1.12672000355619,0,"incongruent"
"5974561734b844000168d1e0",1,0.506,"Speed_Accuracy","Speed",-1.4394449325056,0,"incongruent"
"5974561734b844000168d1e0",3,0.675,"Speed_Accuracy","Speed",-0.941492086768913,1,"incongruent"
"5974561734b844000168d1e0",4,0.704,"Speed_Accuracy","Speed",-0.525782355445419,1,"congruent"
"5974561734b844000168d1e0",6,0.751,"Speed_Accuracy","Speed",0.307884186830346,0,"incongruent"
"5974561734b844000168d1e0",7,0.7,"Speed_Accuracy","Speed",0.757749528511231,1,"congruent"
"5974561734b844000168d1e0",1,0.837,"Speed_Accuracy","Speed_Accuracy",-1.4394449325056,1,"congruent"
"5974561734b844000168d1e0",2,0.551,"Speed_Accuracy","Speed_Accuracy",-1.06328380264855,1,"incongruent"
"5974561734b844000168d1e0",3,0.51,"Speed_Accuracy","Speed_Accuracy",-0.703301646118695,1,"incongruent"
"5974561734b844000168d1e0",4,0.348,"Speed_Accuracy","Speed_Accuracy",-0.361745542544797,1,"congruent"
"5974561734b844000168d1e0",5,0.521,"Speed_Accuracy","Speed_Accuracy",-0.0929948189432291,1,"congruent"
"5974561734b844000168d1e0",6,0.629,"Speed_Accuracy","Speed_Accuracy",0.253504859813976,1,"incongruent"
"5974561734b844000168d1e0",7,0.494,"Speed_Accuracy","Speed_Accuracy",0.648541458552734,1,"incongruent"
"5974561734b844000168d1e0",8,0.503,"Speed_Accuracy","Speed_Accuracy",0.982906907314551,1,"incongruent"
"5974561734b844000168d1e0",9,0.535,"Speed_Accuracy","Speed_Accuracy",1.32131709940816,1,"congruent"
"5974561734b844000168d1e0",10,0.5,"Speed_Accuracy","Speed_Accuracy",1.67410860112594,1,"incongruent"
"5974561734b844000168d1e0",11,0.584,"Speed_Accuracy","Speed_Accuracy",2.01117054544229,1,"congruent"
"5974561734b844000168d1e0",1,0.533,"Accuracy","Speed_Accuracy",-1.4394449325056,1,"congruent"
"5974561734b844000168d1e0",2,0.508,"Accuracy","Speed_Accuracy",-1.19990624407811,1,"incongruent"
"5974561734b844000168d1e0",3,0.479,"Accuracy","Speed_Accuracy",-0.859248972355725,1,"congruent"
"5974561734b844000168d1e0",4,0.771,"Accuracy","Speed_Accuracy",-0.531624762480235,1,"incongruent"
"5974561734b844000168d1e0",5,0.687,"Accuracy","Speed_Accuracy",-0.0727711022842483,1,"congruent"
"5974561734b844000168d1e0",6,0.521,"Accuracy","Speed_Accuracy",0.348331620148308,1,"incongruent"
"5974561734b844000168d1e0",8,0.654,"Accuracy","Speed_Accuracy",1.0525663758066,1,"incongruent"
"5974561734b844000168d1e0",3,0.293,"Speed","Accuracy",-1.00485973230039,0,"incongruent"
"5974561734b844000168d1e0",9,0.261,"Speed","Accuracy",0.393722628649576,1,"incongruent"
"5974561734b844000168d1e0",11,0.297,"Speed","Accuracy",0.847632713662257,1,"congruent"
"5974561734b844000168d1e0",6,0.285,"Speed","Speed",-0.354554887732714,1,"congruent"
"5974561734b844000168d1e0",7,0.257,"Speed","Speed",-0.11411736745372,1,"congruent"
"5974561734b844000168d1e0",9,0.289,"Speed","Speed",0.347882204222553,0,"incongruent"
"5974561734b844000168d1e0",10,0.295,"Speed","Speed",0.590117388204568,1,"congruent"
"5974561734b844000168d1e0",1,1.101,"Accuracy","Speed",-1.4394449325056,1,"incongruent"
"5974561734b844000168d1e0",2,0.599,"Accuracy","Speed",-0.944637998249199,1,"congruent"
"5974561734b844000168d1e0",3,0.502,"Accuracy","Speed",-0.563083877283095,1,"incongruent"
"5974561734b844000168d1e0",4,0.388,"Accuracy","Speed",-0.225123101115237,1,"incongruent"
"5974561734b844000168d1e0",5,0.413,"Accuracy","Speed",0.0616042595165354,1,"congruent"
"5974561734b844000168d1e0",6,0.659,"Accuracy","Speed",0.359567018292186,0,"incongruent"
"5974561734b844000168d1e0",7,0.465,"Accuracy","Speed",0.768086094803599,1,"congruent"
"5974561734b844000168d1e0",1,0.882,"Accuracy","Accuracy",-1.4394449325056,1,"congruent"
"5974561734b844000168d1e0",2,0.599,"Accuracy","Accuracy",-1.04306008598957,1,"incongruent"
"5974561734b844000168d1e0",3,0.531,"Accuracy","Accuracy",-0.661505965023468,1,"incongruent"
"5974561734b844000168d1e0",4,0.491,"Accuracy","Accuracy",-0.310512127008712,1,"congruent"
"5974561734b844000168d1e0",5,0.737,"Accuracy","Accuracy",0.0225050739758391,1,"incongruent"
"5974561734b844000168d1e0",6,0.467,"Accuracy","Accuracy",0.466078592696152,1,"congruent"
"5974561734b844000168d1e0",7,0.63,"Accuracy","Accuracy",0.78830981146258,1,"incongruent"
"5974561734b844000168d1e0",8,0.595,"Accuracy","Accuracy",1.18379582612709,1,"incongruent"
"5974561734b844000168d1e0",4,0.544,"Speed_Accuracy","Accuracy",-0.413428374006636,1,"incongruent"
"5974561734b844000168d1e0",5,0.471,"Speed_Accuracy","Accuracy",-0.0565921289570636,1,"congruent"
"5974561734b844000168d1e0",6,0.461,"Speed_Accuracy","Accuracy",0.267436753512385,1,"incongruent"
"5974561734b844000168d1e0",7,0.625,"Speed_Accuracy","Accuracy",0.586971476724282,1,"incongruent"
"5974561734b844000168d1e0",8,0.489,"Speed_Accuracy","Accuracy",0.98021041176002,1,"congruent"
"5b060d9e68eff50001d1a2c1",1,1.094,"Speed_Accuracy","Speed",-1.4394449325056,1,"congruent"
"5b060d9e68eff50001d1a2c1",2,0.583,"Speed_Accuracy","Speed",-0.947783909729485,1,"incongruent"
"5b060d9e68eff50001d1a2c1",3,0.589,"Speed_Accuracy","Speed",-0.573420443575462,1,"incongruent"
"5b060d9e68eff50001d1a2c1",4,0.524,"Speed_Accuracy","Speed",-0.196360481866909,1,"congruent"
"5b060d9e68eff50001d1a2c1",5,0.88,"Speed_Accuracy","Speed",0.151487444667561,1,"incongruent"
"5b060d9e68eff50001d1a2c1",6,0.527,"Speed_Accuracy","Speed",0.659327440770857,1,"incongruent"
"5b060d9e68eff50001d1a2c1",7,0.497,"Speed_Accuracy","Speed",1.00852361508259,1,"congruent"
"5b060d9e68eff50001d1a2c1",2,0.569,"Speed_Accuracy","Speed_Accuracy",-1.09743941300594,1,"congruent"
"5b060d9e68eff50001d1a2c1",3,0.394,"Speed_Accuracy","Speed_Accuracy",-0.729367769812492,1,"congruent"
"5b060d9e68eff50001d1a2c1",4,0.516,"Speed_Accuracy","Speed_Accuracy",-0.439943913626189,1,"incongruent"
"5b060d9e68eff50001d1a2c1",5,0.416,"Speed_Accuracy","Speed_Accuracy",-0.0956913144977599,1,"incongruent"
"5b060d9e68eff50001d1a2c1",6,0.623,"Speed_Accuracy","Speed_Accuracy",0.203619692055156,1,"incongruent"
"5b060d9e68eff50001d1a2c1",7,0.497,"Speed_Accuracy","Speed_Accuracy",0.595959795239384,1,"congruent"
"5b060d9e68eff50001d1a2c1",8,0.457,"Speed_Accuracy","Speed_Accuracy",0.931673491778466,1,"congruent"
"5b060d9e68eff50001d1a2c1",1,0.707,"Accuracy","Speed_Accuracy",-1.4394449325056,1,"congruent"
"5b060d9e68eff50001d1a2c1",2,0.46,"Accuracy","Speed_Accuracy",-1.12170787299672,1,"incongruent"
"5b060d9e68eff50001d1a2c1",3,0.623,"Accuracy","Speed_Accuracy",-0.802622565710578,1,"incongruent"
"5b060d9e68eff50001d1a2c1",4,0.442,"Accuracy","Speed_Accuracy",-0.41028246252635,1,"incongruent"
"5b060d9e68eff50001d1a2c1",5,0.862,"Accuracy","Speed_Accuracy",-0.0992866419038009,1,"congruent"
"5b060d9e68eff50001d1a2c1",6,0.518,"Accuracy","Speed_Accuracy",0.400463867535903,1,"incongruent"
"5b060d9e68eff50001d1a2c1",7,0.488,"Accuracy","Speed_Accuracy",0.745615298515842,1,"congruent"
"5b060d9e68eff50001d1a2c1",1,0.749,"Speed_Accuracy","Accuracy",-1.4394449325056,1,"incongruent"
"5b060d9e68eff50001d1a2c1",2,0.522,"Speed_Accuracy","Accuracy",-1.102832404115,1,"congruent"
"5b060d9e68eff50001d1a2c1",3,0.471,"Speed_Accuracy","Accuracy",-0.755883309432045,1,"congruent"
"5b060d9e68eff50001d1a2c1",4,0.928,"Speed_Accuracy","Accuracy",-0.431854426962597,1,"incongruent"
"5b060d9e68eff50001d1a2c1",5,0.683,"Speed_Accuracy","Accuracy",0.0975575335769457,1,"incongruent"
"5b060d9e68eff50001d1a2c1",6,0.631,"Speed_Accuracy","Accuracy",0.516862592306481,1,"congruent"
"5b060d9e68eff50001d1a2c1",7,1.201,"Speed_Accuracy","Accuracy",0.91279802289675,1,"incongruent"
"5b060d9e68eff50001d1a2c1",8,0.529,"Speed_Accuracy","Accuracy",1.56490053116744,1,"congruent"
"5b060d9e68eff50001d1a2c1",1,0.918,"Accuracy","Speed_Accuracy",-1.4394449325056,1,"incongruent"
"5b060d9e68eff50001d1a2c1",2,0.596,"Accuracy","Speed_Accuracy",-1.02688111266239,1,"congruent"
"5b060d9e68eff50001d1a2c1",3,0.661,"Accuracy","Speed_Accuracy",-0.646675239473549,1,"incongruent"
"5b060d9e68eff50001d1a2c1",4,0.597,"Accuracy","Speed_Accuracy",-0.237257331110626,1,"incongruent"
"5b060d9e68eff50001d1a2c1",5,0.583,"Accuracy","Speed_Accuracy",0.143397958003969,1,"congruent"
"5b060d9e68eff50001d1a2c1",6,0.45,"Accuracy","Speed_Accuracy",0.517761424157992,1,"congruent"
"5b060d9e68eff50001d1a2c1",7,0.814,"Accuracy","Speed_Accuracy",0.832352572186582,1,"incongruent"
"5b060d9e68eff50001d1a2c1",1,0.694,"Speed","Accuracy",-1.4394449325056,1,"incongruent"
"5b060d9e68eff50001d1a2c1",2,0.541,"Speed","Accuracy",-1.12755028003154,1,"congruent"
"5b060d9e68eff50001d1a2c1",3,0.508,"Speed","Accuracy",-0.77206228275923,1,"congruent"
"5b060d9e68eff50001d1a2c1",4,0.393,"Speed","Accuracy",-0.431405011036842,1,"incongruent"
"5b060d9e68eff50001d1a2c1",5,0.567,"Speed","Accuracy",-0.142430570776293,1,"congruent"
"5b060d9e68eff50001d1a2c1",6,0.413,"Speed","Accuracy",0.224742240565647,1,"incongruent"
"5b060d9e68eff50001d1a2c1",7,0.48,"Speed","Accuracy",0.522704999341298,1,"incongruent"
"5b060d9e68eff50001d1a2c1",8,0.481,"Speed","Accuracy",0.850778625142543,1,"incongruent"
"5b060d9e68eff50001d1a2c1",1,0.6,"Speed","Speed",-1.4394449325056,1,"congruent"
"5b060d9e68eff50001d1a2c1",2,0.544,"Speed","Speed",-1.16979537705252,1,"incongruent"
"5b060d9e68eff50001d1a2c1",3,0.523,"Speed","Speed",-0.812959132002946,1,"congruent"
"5b060d9e68eff50001d1a2c1",4,0.655,"Speed","Speed",-0.465560621394231,1,"incongruent"
"5b060d9e68eff50001d1a2c1",5,0.42,"Speed","Speed",-0.0588392085858393,1,"incongruent"
"5b060d9e68eff50001d1a2c1",7,0.496,"Speed","Speed",0.602251618199956,1,"incongruent"
"5b060d9e68eff50001d1a2c1",8,0.568,"Speed","Speed",0.937515898813283,1,"congruent"
"5b060d9e68eff50001d1a2c1",9,0.501,"Speed","Speed",1.30513812608098,1,"incongruent"
"5b060d9e68eff50001d1a2c1",10,0.587,"Speed","Speed",1.64264948632308,1,"incongruent"
"5b060d9e68eff50001d1a2c1",11,1.081,"Speed","Speed",2.01881061618012,1,"congruent"
"5b060d9e68eff50001d1a2c1",1,0.664,"Accuracy","Speed",-1.4394449325056,1,"incongruent"
"5b060d9e68eff50001d1a2c1",2,0.498,"Accuracy","Speed",-1.14103275780419,1,"congruent"
"5b060d9e68eff50001d1a2c1",3,0.479,"Accuracy","Speed",-0.804869645339354,1,"congruent"
"5b060d9e68eff50001d1a2c1",4,0.383,"Accuracy","Speed",-0.477245435463865,1,"incongruent"
"5b060d9e68eff50001d1a2c1",5,0.463,"Accuracy","Speed",-0.192765154460868,1,"congruent"
"5b060d9e68eff50001d1a2c1",6,0.465,"Accuracy","Speed",0.127668400602539,1,"incongruent"
"5b060d9e68eff50001d1a2c1",7,0.403,"Accuracy","Speed",0.449000787517457,1,"congruent"
"5b060d9e68eff50001d1a2c1",8,0.326,"Accuracy","Speed",0.742469387035556,1,"incongruent"
"5b060d9e68eff50001d1a2c1",1,0.805,"Speed_Accuracy","Accuracy",-1.4394449325056,1,"incongruent"
"5b060d9e68eff50001d1a2c1",2,0.521,"Speed_Accuracy","Accuracy",-1.07766511227272,1,"congruent"
"5b060d9e68eff50001d1a2c1",3,0.377,"Speed_Accuracy","Accuracy",-0.731165433515513,1,"congruent"
"5b060d9e68eff50001d1a2c1",4,0.478,"Speed_Accuracy","Accuracy",-0.449381648067047,1,"incongruent"
"5b060d9e68eff50001d1a2c1",5,0.56,"Speed_Accuracy","Accuracy",-0.122206854117313,1,"incongruent"
"5b060d9e68eff50001d1a2c1",6,0.612,"Speed_Accuracy","Accuracy",0.241820045744342,1,"congruent"
"5b060d9e68eff50001d1a2c1",7,0.506,"Speed_Accuracy","Accuracy",0.629216573745264,1,"incongruent"
"5b060d9e68eff50001d1a2c1",8,0.442,"Speed_Accuracy","Accuracy",0.968975013616142,1,"incongruent"
"5b060d9e68eff50001d1a2c1",9,0.608,"Speed_Accuracy","Accuracy",1.27997083423869,1,"incongruent"
"5b060d9e68eff50001d1a2c1",10,0.573,"Speed_Accuracy","Accuracy",1.66556969853659,1,"congruent"
"5b060d9e68eff50001d1a2c1",1,0.555,"Accuracy","Speed_Accuracy",-1.4394449325056,1,"congruent"
"5b060d9e68eff50001d1a2c1",3,0.495,"Accuracy","Speed_Accuracy",-0.819700370889273,1,"congruent"
"5b060d9e68eff50001d1a2c1",5,1.134,"Accuracy","Speed_Accuracy",-0.172990853727642,1,"incongruent"
"5b060d9e68eff50001d1a2c1",6,0.625,"Accuracy","Speed_Accuracy",0.449000787517457,1,"congruent"
"5b060d9e68eff50001d1a2c1",7,0.656,"Accuracy","Speed_Accuracy",0.842239722553195,1,"congruent"
"5b060d9e68eff50001d1a2c1",8,0.657,"Accuracy","Speed_Accuracy",1.24941055128734,1,"incongruent"
"5b060d9e68eff50001d1a2c1",9,0.928,"Accuracy","Speed_Accuracy",1.65703079594724,1,"incongruent"
"5b060d9e68eff50001d1a2c1",10,0.564,"Accuracy","Speed_Accuracy",2.18644275648679,1,"incongruent"
"5b060d9e68eff50001d1a2c1",1,0.643,"Speed","Accuracy",-1.4394449325056,1,"congruent"
"5b060d9e68eff50001d1a2c1",2,0.628,"Speed","Accuracy",-1.15047049224505,1,"incongruent"
"5b060d9e68eff50001d1a2c1",3,0.657,"Speed","Accuracy",-0.755883309432045,1,"congruent"
"5b060d9e68eff50001d1a2c1",4,0.614,"Speed","Accuracy",-0.348263064772143,1,"incongruent"
"5b060d9e68eff50001d1a2c1",5,0.717,"Speed","Accuracy",0.0400322950802892,1,"incongruent"
"5b060d9e68eff50001d1a2c1",6,0.399,"Speed","Accuracy",0.474617495285499,1,"congruent"
"5b060d9e68eff50001d1a2c1",7,0.624,"Speed","Accuracy",0.766288431100578,1,"incongruent"
"5b060d9e68eff50001d1a2c1",8,0.457,"Speed","Accuracy",1.15907795021056,1,"incongruent"
"5b060d9e68eff50001d1a2c1",1,0.69,"Accuracy","Speed",-1.4394449325056,1,"congruent"
"5b060d9e68eff50001d1a2c1",2,0.822,"Accuracy","Speed",-1.12934794373456,1,"incongruent"
"5b060d9e68eff50001d1a2c1",3,0.461,"Accuracy","Speed",-0.647574071325059,1,"incongruent"
"5b060d9e68eff50001d1a2c1",4,0.729,"Accuracy","Speed",-0.328039348113162,1,"incongruent"
"5b060d9e68eff50001d1a2c1",5,0.783,"Accuracy","Speed",0.11193884320111,1,"congruent"
"5b060d9e68eff50001d1a2c1",6,0.569,"Accuracy","Speed",0.576185494506159,1,"congruent"
"5b060d9e68eff50001d1a2c1",7,0.488,"Accuracy","Speed",0.94425713769961,1,"congruent"
"5b060d9e68eff50001d1a2c1",8,0.517,"Accuracy","Speed",1.2759260909069,1,"incongruent"
"5b060d9e68eff50001d1a2c1",1,0.582,"Speed","Accuracy",-1.4394449325056,1,"congruent"
"5b060d9e68eff50001d1a2c1",2,0.856,"Speed","Accuracy",-1.17788486371611,1,"incongruent"
"5b060d9e68eff50001d1a2c1",3,0.643,"Speed","Accuracy",-0.680830849830938,1,"incongruent"
"5b060d9e68eff50001d1a2c1",4,0.598,"Speed","Accuracy",-0.279502428131608,1,"congruent"
"5b060d9e68eff50001d1a2c1",5,0.538,"Speed","Accuracy",0.101602276908742,1,"congruent"
"5b060d9e68eff50001d1a2c1",6,0.418,"Speed","Accuracy",0.455742026403784,1,"incongruent"
"5b060d9e68eff50001d1a2c1",1,0.698,"Speed_Accuracy","Speed",-1.4394449325056,1,"incongruent"
"5b060d9e68eff50001d1a2c1",3,0.692,"Speed_Accuracy","Speed",-0.75543389350629,1,"incongruent"
"5b060d9e68eff50001d1a2c1",4,0.49,"Speed_Accuracy","Speed",-0.332084091444958,1,"incongruent"
"5b060d9e68eff50001d1a2c1",5,0.47,"Speed_Accuracy","Speed",0.000483693613837796,1,"congruent"
"5b060d9e68eff50001d1a2c1",6,0.516,"Speed_Accuracy","Speed",0.324063160157531,1,"congruent"
"5b060d9e68eff50001d1a2c1",7,0.538,"Speed_Accuracy","Speed",0.66831575928596,1,"incongruent"
"5b060d9e68eff50001d1a2c1",8,0.822,"Speed_Accuracy","Speed",1.022455508781,1,"congruent"
"5b060d9e68eff50001d1a2c1",9,0.512,"Speed_Accuracy","Speed",1.5042293811905,1,"incongruent"
"5b060d9e68eff50001d1a2c1",10,0.459,"Speed_Accuracy","Speed",1.84668431661591,1,"congruent"
"5b060d9e68eff50001d1a2c1",11,0.414,"Speed_Accuracy","Speed",2.1653202079763,1,"congruent"
"5b060d9e68eff50001d1a2c1",1,0.633,"Accuracy","Speed_Accuracy",-1.4394449325056,1,"congruent"
"5b060d9e68eff50001d1a2c1",2,0.617,"Accuracy","Speed_Accuracy",-1.1549646515026,1,"incongruent"
"5b060d9e68eff50001d1a2c1",3,0.373,"Accuracy","Speed_Accuracy",-0.765321043872903,1,"congruent"
"5b060d9e68eff50001d1a2c1",4,0.329,"Accuracy","Speed_Accuracy",-0.485334922127457,1,"incongruent"
"5b060d9e68eff50001d1a2c1",5,0.494,"Accuracy","Speed_Accuracy",-0.225123101115237,1,"congruent"
"5b060d9e68eff50001d1a2c1",6,0.291,"Accuracy","Speed_Accuracy",0.109242347646579,1,"incongruent"
"5b060d9e68eff50001d1a2c1",7,0.469,"Accuracy","Speed_Accuracy",0.352376363480104,1,"congruent"
"5b060d9e68eff50001d1a2c1",8,0.567,"Accuracy","Speed_Accuracy",0.675506414098042,1,"incongruent"
"5b060d9e68eff50001d1a2c1",10,0.438,"Accuracy","Speed_Accuracy",1.36356219642915,1,"incongruent"
"5b060d9e68eff50001d1a2c1",1,0.607,"Speed_Accuracy","Accuracy",-1.4394449325056,1,"congruent"
"5b060d9e68eff50001d1a2c1",2,0.518,"Speed_Accuracy","Accuracy",-1.16664946557223,1,"incongruent"
"5b060d9e68eff50001d1a2c1",3,0.451,"Speed_Accuracy","Accuracy",-0.821498034592294,1,"congruent"
"5b060d9e68eff50001d1a2c1",4,0.547,"Speed_Accuracy","Accuracy",-0.506457470637948,1,"incongruent"
"5b060d9e68eff50001d1a2c1",5,0.362,"Speed_Accuracy","Accuracy",-0.14827297781111,1,"incongruent"
"5b060d9e68eff50001d1a2c1",6,0.77,"Speed_Accuracy","Accuracy",0.126769568751029,1,"incongruent"
"5b060d9e68eff50001d1a2c1",7,0.505,"Speed_Accuracy","Accuracy",0.585173813021261,1,"congruent"
"5b060d9e68eff50001d1a2c1",9,0.53,"Speed_Accuracy","Accuracy",1.28536382534775,1,"incongruent"
"5b060d9e68eff50001d1a2c1",1,0.741,"Speed","Speed_Accuracy",-1.4394449325056,0,"incongruent"
"5b060d9e68eff50001d1a2c1",2,0.438,"Speed","Speed_Accuracy",-1.10642773152105,1,"congruent"
"5b060d9e68eff50001d1a2c1",3,0.794,"Speed","Speed_Accuracy",-0.797229574601517,1,"incongruent"
"5b060d9e68eff50001d1a2c1",4,0.812,"Speed","Speed_Accuracy",-0.328039348113162,1,"incongruent"
"5b060d9e68eff50001d1a2c1",5,0.507,"Speed","Speed_Accuracy",0.149240365038786,1,"congruent"
"5b060d9e68eff50001d1a2c1",6,1.037,"Speed","Speed_Accuracy",0.489448220835419,1,"incongruent"
"5b060d9e68eff50001d1a2c1",7,0.488,"Speed","Speed_Accuracy",1.06784651728227,1,"congruent"
"5b060d9e68eff50001d1a2c1",8,0.526,"Speed","Speed_Accuracy",1.39951547048956,1,"incongruent"
"5b060d9e68eff50001d1a2c1",9,0.518,"Speed","Speed_Accuracy",1.74826222887554,1,"congruent"
"5b060d9e68eff50001d1a2c1",1,0.777,"Speed_Accuracy","Speed",-1.4394449325056,1,"congruent"
"5b060d9e68eff50001d1a2c1",2,0.655,"Speed_Accuracy","Speed",-1.09024875819386,1,"incongruent"
"5b060d9e68eff50001d1a2c1",3,0.466,"Speed_Accuracy","Speed",-0.683527345385469,1,"incongruent"
"5b060d9e68eff50001d1a2c1",5,0.372,"Speed_Accuracy","Speed",0.00407902101987883,1,"congruent"
"5b060d9e68eff50001d1a2c1",6,0.624,"Speed_Accuracy","Speed",0.283615726839569,1,"congruent"
"5b060d9e68eff50001d1a2c1",7,0.576,"Speed_Accuracy","Speed",0.676405245949552,1,"congruent"
"5b060d9e68eff50001d1a2c1",8,0.626,"Speed_Accuracy","Speed",1.04762280062329,1,"incongruent"
"5b060d9e68eff50001d1a2c1",1,0.66,"Accuracy","Speed_Accuracy",-1.4394449325056,1,"congruent"
"5b060d9e68eff50001d1a2c1",2,0.544,"Accuracy","Speed_Accuracy",-1.14283042150721,1,"incongruent"
"5b060d9e68eff50001d1a2c1",3,0.453,"Accuracy","Speed_Accuracy",-0.785994176457639,1,"congruent"
"5b060d9e68eff50001d1a2c1",4,0.422,"Accuracy","Speed_Accuracy",-0.470054780651783,1,"incongruent"
"5b060d9e68eff50001d1a2c1",5,0.383,"Accuracy","Speed_Accuracy",-0.168047278544336,1,"congruent"
