"subj_idx","trialNum","rt","intervalType","blockType","scaledRunningTime","response","congruency"
"588e8b95670d6600012bd8dc",1,0.737,"Speed_Accuracy","Varying",-1.4394449325056,1,"congruent"
"588e8b95670d6600012bd8dc",2,1.151,"Speed_Accuracy","Varying",-1.10822539522407,1,"incongruent"
"588e8b95670d6600012bd8dc",3,0.641,"Speed_Accuracy","Varying",-0.47859368324113,1,"congruent"
"588e8b95670d6600012bd8dc",4,0.688,"Speed_Accuracy","Varying",-0.0781640933933098,1,"incongruent"
"588e8b95670d6600012bd8dc",5,0.674,"Speed_Accuracy","Varying",0.343388044965002,1,"incongruent"
"588e8b95670d6600012bd8dc",6,0.521,"Speed_Accuracy","Varying",0.758648360362741,1,"incongruent"
"588e8b95670d6600012bd8dc",7,1.075,"Speed_Accuracy","Varying",1.10514803911995,1,"congruent"
"588e8b95670d6600012bd8dc",8,0.664,"Speed_Accuracy","Varying",1.70062414074549,1,"congruent"
"588e8b95670d6600012bd8dc",1,1.154,"Accuracy","Varying",-1.4394449325056,1,"incongruent"
"588e8b95670d6600012bd8dc",2,0.885,"Accuracy","Varying",-0.920818954184177,1,"congruent"
"588e8b95670d6600012bd8dc",3,1.036,"Accuracy","Varying",-0.410731878452106,1,"congruent"
"588e8b95670d6600012bd8dc",4,0.933,"Accuracy","Varying",0.167217002068991,1,"incongruent"
"588e8b95670d6600012bd8dc",5,0.723,"Accuracy","Varying",0.698876042237309,1,"congruent"
"588e8b95670d6600012bd8dc",6,0.936,"Accuracy","Varying",1.13615773799705,1,"incongruent"
"588e8b95670d6600012bd8dc",7,0.747,"Accuracy","Varying",1.66916502594263,1,"congruent"
"588e8b95670d6600012bd8dc",1,0.748,"Speed_Accuracy","Varying",-1.4394449325056,1,"congruent"
"588e8b95670d6600012bd8dc",2,0.856,"Speed_Accuracy","Varying",-1.10328182004076,1,"incongruent"
"588e8b95670d6600012bd8dc",3,0.65,"Speed_Accuracy","Varying",-0.606227806155587,1,"incongruent"
"588e8b95670d6600012bd8dc",4,0.759,"Speed_Accuracy","Varying",-0.20175347297597,1,"incongruent"
"588e8b95670d6600012bd8dc",6,1.194,"Speed_Accuracy","Varying",0.65078853818151,1,"congruent"
"588e8b95670d6600012bd8dc",7,0.939,"Speed_Accuracy","Varying",1.29974513497192,1,"incongruent"
"588e8b95670d6600012bd8dc",1,1.007,"Accuracy","Varying",-1.4394449325056,1,"congruent"
"588e8b95670d6600012bd8dc",2,1.075,"Accuracy","Varying",-0.986883095270181,1,"incongruent"
"588e8b95670d6600012bd8dc",3,0.719,"Accuracy","Varying",-0.391406993644635,1,"congruent"
"588e8b95670d6600012bd8dc",4,0.79,"Accuracy","Varying",0.0440770384120853,1,"incongruent"
"588e8b95670d6600012bd8dc",5,0.661,"Accuracy","Varying",0.51146960119742,1,"incongruent"
"588e8b95670d6600012bd8dc",6,0.411,"Accuracy","Varying",0.920887509560343,1,"congruent"
"588e8b95670d6600012bd8dc",7,0.361,"Accuracy","Varying",1.21795143648448,1,"congruent"
"588e8b95670d6600012bd8dc",1,1.008,"Speed","Varying",-1.4394449325056,1,"congruent"
"588e8b95670d6600012bd8dc",2,0.828,"Speed","Varying",-0.986433679344426,1,"incongruent"
"588e8b95670d6600012bd8dc",3,0.649,"Speed","Varying",-0.501963311380397,1,"congruent"
"588e8b95670d6600012bd8dc",5,1.164,"Speed","Varying",0.240921213892832,1,"congruent"
"588e8b95670d6600012bd8dc",6,0.547,"Speed","Varying",0.876395332910585,1,"incongruent"
"588e8b95670d6600012bd8dc",7,0.496,"Speed","Varying",1.23457982573742,1,"incongruent"
"588e8b95670d6600012bd8dc",8,0.387,"Speed","Varying",1.56984410635075,1,"congruent"
"588e8b95670d6600012bd8dc",9,0.605,"Speed","Varying",1.85612205105677,1,"congruent"
"588e8b95670d6600012bd8dc",1,0.93,"Accuracy","Varying",-1.4394449325056,1,"incongruent"
"588e8b95670d6600012bd8dc",2,0.631,"Accuracy","Varying",-1.02148812155333,1,"congruent"
"588e8b95670d6600012bd8dc",3,0.451,"Accuracy","Varying",-0.625552690963057,1,"congruent"
"588e8b95670d6600012bd8dc",4,0.614,"Accuracy","Varying",-0.310512127008712,1,"incongruent"
"588e8b95670d6600012bd8dc",5,0.819,"Accuracy","Varying",0.07778323284372,1,"incongruent"
"588e8b95670d6600012bd8dc",6,0.894,"Accuracy","Varying",0.558208857475953,1,"incongruent"
"588e8b95670d6600012bd8dc",7,0.769,"Accuracy","Varying",1.07234067653982,1,"congruent"
"588e8b95670d6600012bd8dc",8,0.727,"Accuracy","Varying",1.5302955048843,1,"congruent"
"588e8b95670d6600012bd8dc",9,0.7,"Accuracy","Varying",1.96937486434706,1,"congruent"
"588e8b95670d6600012bd8dc",10,0.445,"Accuracy","Varying",2.39631999381443,1,"incongruent"
"588e8b95670d6600012bd8dc",1,1.015,"Speed_Accuracy","Varying",-1.4394449325056,1,"incongruent"
"588e8b95670d6600012bd8dc",2,0.634,"Speed_Accuracy","Varying",-0.98328776786414,1,"congruent"
"588e8b95670d6600012bd8dc",3,0.749,"Speed_Accuracy","Varying",-0.586004089496606,1,"incongruent"
"588e8b95670d6600012bd8dc",4,1.194,"Speed_Accuracy","Varying",-0.137037579667232,1,"incongruent"
"588e8b95670d6600012bd8dc",5,0.616,"Speed_Accuracy","Varying",0.511919017123175,1,"congruent"
"588e8b95670d6600012bd8dc",6,0.865,"Speed_Accuracy","Varying",0.901113208827117,1,"congruent"
"588e8b95670d6600012bd8dc",7,0.648,"Speed_Accuracy","Varying",1.40221196604409,1,"congruent"
"588e8b95670d6600012bd8dc",1,0.915,"Speed_Accuracy","Varying",-1.4394449325056,1,"congruent"
"588e8b95670d6600012bd8dc",2,0.694,"Speed_Accuracy","Varying",-1.02822936043965,1,"incongruent"
"588e8b95670d6600012bd8dc",3,1.104,"Speed_Accuracy","Varying",-0.603980726526811,1,"incongruent"
"588e8b95670d6600012bd8dc",4,0.938,"Speed_Accuracy","Varying",0.00452843694563396,1,"incongruent"
"588e8b95670d6600012bd8dc",6,0.901,"Speed_Accuracy","Varying",0.970323261393407,1,"incongruent"
"588e8b95670d6600012bd8dc",1,0.809,"Accuracy","Varying",-1.4394449325056,1,"congruent"
"588e8b95670d6600012bd8dc",2,0.695,"Accuracy","Varying",-1.0758674485697,1,"incongruent"
"588e8b95670d6600012bd8dc",3,0.485,"Accuracy","Varying",-0.6511693987311,1,"incongruent"
"588e8b95670d6600012bd8dc",4,0.574,"Accuracy","Varying",-0.32084869330108,1,"congruent"
"588e8b95670d6600012bd8dc",5,0.441,"Accuracy","Varying",0.0494700295211469,1,"incongruent"
"588e8b95670d6600012bd8dc",6,0.827,"Accuracy","Varying",0.360016434217941,1,"incongruent"
"588e8b95670d6600012bd8dc",1,1.026,"Speed","Varying",-1.4394449325056,1,"congruent"
"588e8b95670d6600012bd8dc",2,0.814,"Speed","Varying",-0.978344192680834,1,"incongruent"
"588e8b95670d6600012bd8dc",3,0.476,"Speed","Varying",-0.500165647677376,1,"congruent"
"588e8b95670d6600012bd8dc",4,1.012,"Speed","Varying",-0.173889685579152,1,"incongruent"
"588e8b95670d6600012bd8dc",5,0.567,"Speed","Varying",0.393273212723821,1,"congruent"
"588e8b95670d6600012bd8dc",6,0.729,"Speed","Varying",0.760446024065762,1,"incongruent"
"588e8b95670d6600012bd8dc",1,0.718,"Speed","Varying",-1.4394449325056,1,"incongruent"
"588e8b95670d6600012bd8dc",2,0.605,"Speed","Varying",-1.11676429781341,1,"congruent"
"588e8b95670d6600012bd8dc",3,0.734,"Speed","Varying",-0.732513681292778,1,"incongruent"
"588e8b95670d6600012bd8dc",4,0.534,"Speed","Varying",-0.290288410349731,1,"congruent"
"588e8b95670d6600012bd8dc",5,0.906,"Speed","Varying",0.0620536754422905,1,"incongruent"
"588e8b95670d6600012bd8dc",6,0.593,"Speed","Varying",0.58157848561522,1,"congruent"
"588e8b95670d6600012bd8dc",7,0.526,"Speed","Varying",0.960436111026794,1,"incongruent"
"588e8b95670d6600012bd8dc",8,0.483,"Speed","Varying",1.30918286941277,1,"incongruent"
"588e8b95670d6600012bd8dc",10,0.691,"Speed","Varying",1.95409472287139,1,"incongruent"
"588e8b95670d6600012bd8dc",2,0.705,"Speed","Varying",-1.0889005104166,1,"congruent"
"588e8b95670d6600012bd8dc",3,1.428,"Speed","Varying",-0.659708301320447,1,"congruent"
"588e8b95670d6600012bd8dc",4,0.796,"Speed","Varying",0.0944116220966598,1,"incongruent"
"588e8b95670d6600012bd8dc",5,0.898,"Speed","Varying",0.564500680436525,1,"incongruent"
"588e8b95670d6600012bd8dc",6,0.581,"Speed","Varying",1.08043016320341,1,"congruent"
"588e8b95670d6600012bd8dc",7,0.678,"Speed","Varying",1.45389479750593,1,"congruent"
"588e8b95670d6600012bd8dc",1,0.957,"Speed","Varying",-1.4394449325056,1,"incongruent"
"588e8b95670d6600012bd8dc",2,0.444,"Speed","Varying",-1.00935389155794,1,"congruent"
"588e8b95670d6600012bd8dc",3,0.622,"Speed","Varying",-0.697459239083878,1,"congruent"
"588e8b95670d6600012bd8dc",4,0.47,"Speed","Varying",-0.305568551825405,1,"incongruent"
"588e8b95670d6600012bd8dc",5,0.712,"Speed","Varying",0.0180109147182878,1,"congruent"
"588e8b95670d6600012bd8dc",6,0.504,"Speed","Varying",0.450349035294722,1,"incongruent"
"588e8b95670d6600012bd8dc",7,0.511,"Speed","Varying",0.78920864331409,1,"congruent"
"588e8b95670d6600012bd8dc",8,0.799,"Speed","Varying",1.13121416281374,1,"incongruent"
"588e8b95670d6600012bd8dc",9,0.737,"Speed","Varying",1.60265146893087,1,"congruent"
"588e8b95670d6600012bd8dc",1,0.93,"Accuracy","Varying",-1.4394449325056,1,"congruent"
"588e8b95670d6600012bd8dc",2,0.606,"Accuracy","Varying",-1.02148812155333,1,"incongruent"
"588e8b95670d6600012bd8dc",3,1.243,"Accuracy","Varying",-0.636788089106936,1,"incongruent"
"588e8b95670d6600012bd8dc",4,0.566,"Accuracy","Varying",0.0341898880454725,1,"congruent"
"588e8b95670d6600012bd8dc",5,1.138,"Accuracy","Varying",0.400913283461658,1,"congruent"
"588e8b95670d6600012bd8dc",6,0.863,"Accuracy","Varying",1.02470258840978,1,"incongruent"
"588e8b95670d6600012bd8dc",1,1.123,"Accuracy","Varying",-1.4394449325056,1,"congruent"
"588e8b95670d6600012bd8dc",2,0.882,"Accuracy","Varying",-0.934750847882586,1,"incongruent"
"588e8b95670d6600012bd8dc",3,0.759,"Accuracy","Varying",-0.42601201992778,1,"incongruent"
"588e8b95670d6600012bd8dc",4,0.788,"Accuracy","Varying",0.0274486491591456,1,"congruent"
"588e8b95670d6600012bd8dc",5,0.894,"Accuracy","Varying",0.49394238009297,1,"incongruent"
"588e8b95670d6600012bd8dc",6,0.855,"Accuracy","Varying",1.00807419915684,1,"incongruent"
"588e8b95670d6600012bd8dc",7,0.731,"Accuracy","Varying",1.50467879711626,1,"congruent"
"588e8b95670d6600012bd8dc",8,0.654,"Accuracy","Varying",1.94555582028204,1,"incongruent"
"588e8b95670d6600012bd8dc",1,1.151,"Speed_Accuracy","Varying",-1.4394449325056,1,"congruent"
"588e8b95670d6600012bd8dc",2,0.734,"Speed_Accuracy","Varying",-0.922167201961443,1,"incongruent"
"588e8b95670d6600012bd8dc",3,0.606,"Speed_Accuracy","Varying",-0.479941931018395,1,"congruent"
"588e8b95670d6600012bd8dc",4,0.702,"Speed_Accuracy","Varying",-0.0952418985720048,1,"incongruent"
"588e8b95670d6600012bd8dc",5,0.657,"Speed_Accuracy","Varying",0.332602062746878,1,"congruent"
"588e8b95670d6600012bd8dc",6,1.347,"Speed_Accuracy","Varying",0.740222307406781,1,"incongruent"
"588e8b95670d6600012bd8dc",7,0.641,"Speed_Accuracy","Varying",1.45793954083772,1,"congruent"
"588e8b95670d6600012bd8dc",8,0.887,"Speed_Accuracy","Varying",1.85836913068554,1,"incongruent"
"588e8b95670d6600012bd8dc",9,0.623,"Speed_Accuracy","Varying",2.36935503826912,1,"congruent"
"588e8b95670d6600012bd8dc",1,0.971,"Speed_Accuracy","Varying",-1.4394449325056,1,"congruent"
"588e8b95670d6600012bd8dc",2,0.609,"Speed_Accuracy","Varying",-1.00306206859737,1,"incongruent"
"588e8b95670d6600012bd8dc",3,0.642,"Speed_Accuracy","Varying",-0.61701378837371,1,"incongruent"
"588e8b95670d6600012bd8dc",4,0.855,"Speed_Accuracy","Varying",-0.216134782600135,1,"congruent"
"588e8b95670d6600012bd8dc",5,0.743,"Speed_Accuracy","Varying",0.280469815359283,1,"congruent"
"588e8b95670d6600012bd8dc",6,1.083,"Speed_Accuracy","Varying",0.726739829634127,1,"incongruent"
"588e8b95670d6600012bd8dc",1,1.305,"Speed_Accuracy","Varying",-1.4394449325056,1,"congruent"
"588e8b95670d6600012bd8dc",2,0.705,"Speed_Accuracy","Varying",-0.852957149395153,1,"incongruent"
"588e8b95670d6600012bd8dc",3,0.587,"Speed_Accuracy","Varying",-0.423764940299004,1,"congruent"
"588e8b95670d6600012bd8dc",4,0.919,"Speed_Accuracy","Varying",-0.047603810441961,1,"incongruent"
"588e8b95670d6600012bd8dc",5,0.507,"Speed_Accuracy","Varying",0.477763406765785,1,"incongruent"
"588e8b95670d6600012bd8dc",6,0.762,"Speed_Accuracy","Varying",0.817971262562418,1,"congruent"
"588e8b95670d6600012bd8dc",7,0.785,"Speed_Accuracy","Varying",1.27278017942661,1,"congruent"
"588e8b95670d6600012bd8dc",8,0.764,"Speed_Accuracy","Varying",1.73792566258317,1,"incongruent"
"588e8b95670d6600012bd8dc",9,0.558,"Speed_Accuracy","Varying",2.19363341129887,1,"congruent"
"588e8b95670d6600012bd8dc",1,1.563,"Accuracy","Varying",-1.4394449325056,1,"incongruent"
"588e8b95670d6600012bd8dc",3,0.749,"Accuracy","Varying",-0.344218321440346,1,"incongruent"
"588e8b95670d6600012bd8dc",4,0.444,"Accuracy","Varying",0.104748188389028,1,"congruent"
"588e8b95670d6600012bd8dc",5,0.972,"Accuracy","Varying",0.416642840863088,1,"incongruent"
"588e8b95670d6600012bd8dc",6,0.626,"Accuracy","Varying",0.965829102135856,1,"incongruent"
"588e8b95670d6600012bd8dc",1,0.897,"Speed","Varying",-1.4394449325056,1,"congruent"
"588e8b95670d6600012bd8dc",2,1.053,"Speed","Varying",-1.03631884710325,1,"incongruent"
"588e8b95670d6600012bd8dc",3,0.912,"Speed","Varying",-0.450729895844312,1,"incongruent"
"588e8b95670d6600012bd8dc",4,0.739,"Speed","Varying",0.0714914098831482,1,"incongruent"
"588e8b95670d6600012bd8dc",5,0.737,"Speed","Varying",0.515963760454971,1,"congruent"
"588e8b95670d6600012bd8dc",6,0.947,"Speed","Varying",0.959537279175284,1,"incongruent"
"588e8b95670d6600012bd8dc",2,0.519,"Accuracy","Varying",-0.996320829711039,1,"congruent"
"588e8b95670d6600012bd8dc",3,0.421,"Accuracy","Varying",-0.650719982805345,1,"incongruent"
"588e8b95670d6600012bd8dc",6,0.964,"Accuracy","Varying",0.675056998172287,1,"congruent"
"588e8b95670d6600012bd8dc",7,0.803,"Accuracy","Varying",1.22064793203901,1,"congruent"
"588e8b95670d6600012bd8dc",8,0.834,"Accuracy","Varying",1.69388290185917,1,"incongruent"
"588e8b95670d6600012bd8dc",1,0.996,"Accuracy","Varying",-1.4394449325056,1,"congruent"
"588e8b95670d6600012bd8dc",3,0.708,"Accuracy","Varying",-0.51185046174701,1,"incongruent"
"588e8b95670d6600012bd8dc",6,0.76,"Accuracy","Varying",0.903809704381648,1,"congruent"
"588e8b95670d6600012bd8dc",1,0.989,"Speed_Accuracy","Varying",-1.4394449325056,0,"incongruent"
"588e8b95670d6600012bd8dc",2,1.061,"Speed_Accuracy","Varying",-0.994972581933774,1,"congruent"
"588e8b95670d6600012bd8dc",6,0.827,"Speed_Accuracy","Varying",0.96268319065557,1,"incongruent"
"588e8b95670d6600012bd8dc",3,0.83,"Speed_Accuracy","Varying",-0.616564372447955,1,"congruent"
"588e8b95670d6600012bd8dc",5,0.733,"Speed_Accuracy","Varying",0.349230451999818,1,"incongruent"
"588e8b95670d6600012bd8dc",6,0.433,"Speed_Accuracy","Varying",0.79100630701711,1,"incongruent"
"588e8b95670d6600012bd8dc",8,0.635,"Speed_Accuracy","Varying",1.60984212374296,1,"congruent"
"588e8b95670d6600012bd8dc",10,0.595,"Speed_Accuracy","Varying",2.40530831232954,1,"congruent"
"588e8b95670d6600012bd8dc",1,2.267,"Accuracy","Varying",-1.4394449325056,1,"congruent"
"588e8b95670d6600012bd8dc",2,0.853,"Accuracy","Varying",-0.420619028818718,1,"incongruent"
"588e8b95670d6600012bd8dc",3,1.164,"Accuracy","Varying",0.0750867372891893,1,"incongruent"
"588e8b95670d6600012bd8dc",4,1.271,"Accuracy","Varying",0.710560856306942,1,"congruent"
"588e8b95670d6600012bd8dc",1,1.088,"Accuracy","Varying",-1.4394449325056,1,"congruent"
"588e8b95670d6600012bd8dc",2,1.081,"Accuracy","Varying",-0.950480405284016,1,"incongruent"
"588e8b95670d6600012bd8dc",3,0.56,"Accuracy","Varying",-0.352307808103939,1,"congruent"
"588e8b95670d6600012bd8dc",4,0.845,"Accuracy","Varying",0.011719091757716,1,"incongruent"
"588e8b95670d6600012bd8dc",5,0.684,"Accuracy","Varying",0.503829530459583,1,"congruent"
"588e8b95670d6600012bd8dc",7,0.855,"Accuracy","Varying",1.36266336457763,1,"incongruent"
"588e8b95670d6600012bd8dc",1,0.893,"Speed","Varying",-1.4394449325056,1,"congruent"
"588e8b95670d6600012bd8dc",2,0.816,"Speed","Varying",-1.03811651080627,1,"incongruent"
"588e8b95670d6600012bd8dc",3,0.829,"Speed","Varying",-0.559039133951298,1,"incongruent"
"588e8b95670d6600012bd8dc",4,0.402,"Speed","Varying",-0.0741193500615137,1,"congruent"
"588e8b95670d6600012bd8dc",5,1.161,"Speed","Varying",0.218899833530831,1,"incongruent"
"588e8b95670d6600012bd8dc",6,0.947,"Speed","Varying",0.853025704771318,1,"incongruent"
"588e8b95670d6600012bd8dc",1,1.056,"Speed","Varying",-1.4394449325056,1,"incongruent"
"588e8b95670d6600012bd8dc",2,0.723,"Speed","Varying",-0.96486171490818,1,"congruent"
"588e8b95670d6600012bd8dc",3,0.494,"Speed","Varying",-0.527580019148439,1,"congruent"
"588e8b95670d6600012bd8dc",4,0.69,"Speed","Varying",-0.193214570386623,1,"incongruent"
"588e8b95670d6600012bd8dc",5,0.784,"Speed","Varying",0.229236399823199,1,"incongruent"
"588e8b95670d6600012bd8dc",6,0.734,"Speed","Varying",0.693932467054002,1,"congruent"
"588e8b95670d6600012bd8dc",7,0.739,"Speed","Varying",1.13615773799705,1,"incongruent"
"588e8b95670d6600012bd8dc",8,1,"Speed","Varying",1.58063008856887,1,"incongruent"
"588e8b95670d6600012bd8dc",9,0.591,"Speed","Varying",2.14239999576278,1,"incongruent"
"588e8b95670d6600012bd8dc",1,1.099,"Accuracy","Varying",-1.4394449325056,1,"incongruent"
"588e8b95670d6600012bd8dc",2,0.556,"Accuracy","Varying",-0.94553683010071,1,"congruent"
"588e8b95670d6600012bd8dc",3,0.445,"Accuracy","Varying",-0.583307593942075,1,"incongruent"
"588e8b95670d6600012bd8dc",4,0.505,"Accuracy","Varying",-0.27096352554226,1,"incongruent"
"588e8b95670d6600012bd8dc",5,0.488,"Accuracy","Varying",0.0683454984028623,1,"congruent"
"588e8b95670d6600012bd8dc",6,0.696,"Accuracy","Varying",0.400014451610148,1,"incongruent"
"588e8b95670d6600012bd8dc",7,0.653,"Accuracy","Varying",0.8251619173745,1,"congruent"
"588e8b95670d6600012bd8dc",8,0.489,"Accuracy","Varying",1.23098449833138,1,"congruent"
"588e8b95670d6600012bd8dc",9,0.686,"Accuracy","Varying",1.56310286746442,1,"congruent"
"588e8b95670d6600012bd8dc",10,1.035,"Accuracy","Varying",1.98375617397122,1,"incongruent"
"588e8b95670d6600012bd8dc",1,1.015,"Speed_Accuracy","Varying",-1.4394449325056,1,"congruent"
"588e8b95670d6600012bd8dc",2,0.782,"Speed_Accuracy","Varying",-0.98328776786414,1,"incongruent"
"588e8b95670d6600012bd8dc",3,0.736,"Speed_Accuracy","Varying",-0.519490532484847,1,"incongruent"
"588e8b95670d6600012bd8dc",4,0.578,"Speed_Accuracy","Varying",-0.0763664296902893,1,"incongruent"
"588e8b95670d6600012bd8dc",5,0.63,"Speed_Accuracy","Varying",0.295749956834958,1,"congruent"
"588e8b95670d6600012bd8dc",6,0.446,"Speed_Accuracy","Varying",0.691235971499472,1,"congruent"
"588e8b95670d6600012bd8dc",7,0.49,"Speed_Accuracy","Varying",1.00402945582504,1,"congruent"
"588e8b95670d6600012bd8dc",1,0.935,"Speed","Varying",-1.4394449325056,1,"congruent"
"588e8b95670d6600012bd8dc",2,0.972,"Speed","Varying",-1.01924104192455,1,"incongruent"
"588e8b95670d6600012bd8dc",3,0.529,"Speed","Varying",-0.470054780651783,1,"congruent"
"588e8b95670d6600012bd8dc",4,0.516,"Speed","Varying",-0.119959774488537,1,"incongruent"
"588e8b95670d6600012bd8dc",5,0.47,"Speed","Varying",0.224292824639892,1,"incongruent"
"588e8b95670d6600012bd8dc",6,0.857,"Speed","Varying",0.547872291183585,1,"incongruent"
"588e8b95670d6600012bd8dc",7,0.773,"Speed","Varying",1.04537572099451,1,"incongruent"
"588e8b95670d6600012bd8dc",8,0.748,"Speed","Varying",1.50512821304201,1,"congruent"
"588e8b95670d6600012bd8dc",9,0.641,"Speed","Varying",1.95364530694563,1,"congruent"
"588e8b95670d6600012bd8dc",1,0.858,"Speed","Varying",-1.4394449325056,1,"incongruent"
"588e8b95670d6600012bd8dc",2,0.752,"Speed","Varying",-1.0538460682077,1,"congruent"
"588e8b95670d6600012bd8dc",3,0.64,"Speed","Varying",-0.603531310601056,1,"incongruent"
"588e8b95670d6600012bd8dc",4,0.542,"Speed","Varying",-0.203551136678991,1,"incongruent"
"588e8b95670d6600012bd8dc",5,0.419,"Speed","Varying",0.152386276519072,1,"congruent"
"588e8b95670d6600012bd8dc",6,0.919,"Speed","Varying",0.453045530849253,1,"incongruent"
"588e8b95670d6600012bd8dc",7,0.601,"Speed","Varying",0.978412748056999,1,"incongruent"
"588e8b95670d6600012bd8dc",1,1.157,"Speed_Accuracy","Varying",-1.4394449325056,1,"incongruent"
"588e8b95670d6600012bd8dc",2,0.611,"Speed_Accuracy","Varying",-0.919470706406912,1,"congruent"
"588e8b95670d6600012bd8dc",3,0.602,"Speed_Accuracy","Varying",-0.532523594331746,1,"congruent"
"588e8b95670d6600012bd8dc",4,0.412,"Speed_Accuracy","Varying",-0.149621225588375,1,"incongruent"
"588e8b95670d6600012bd8dc",5,0.768,"Speed_Accuracy","Varying",0.14789211726152,1,"incongruent"
"588e8b95670d6600012bd8dc",6,0.579,"Speed_Accuracy","Varying",0.605397529680242,1,"congruent"
"588e8b95670d6600012bd8dc",1,0.952,"Accuracy","Varying",-1.4394449325056,1,"incongruent"
"588e8b95670d6600012bd8dc",2,0.594,"Accuracy","Varying",-1.01160097118671,1,"congruent"
"588e8b95670d6600012bd8dc",3,0.581,"Accuracy","Varying",-0.632293929849384,1,"incongruent"
"588e8b95670d6600012bd8dc",4,0.825,"Accuracy","Varying",-0.258829295546872,1,"congruent"
"588e8b95670d6600012bd8dc",5,0.845,"Accuracy","Varying",0.224292824639892,1,"incongruent"
"588e8b95670d6600012bd8dc",6,0.556,"Accuracy","Varying",0.716403263341759,1,"congruent"
"588e8b95670d6600012bd8dc",7,0.606,"Accuracy","Varying",1.07863249950039,1,"incongruent"
"588e8b95670d6600012bd8dc",1,0.955,"Speed_Accuracy","Varying",-1.4394449325056,1,"congruent"
"588e8b95670d6600012bd8dc",2,0.628,"Speed_Accuracy","Varying",-1.01025272340945,1,"incongruent"
"588e8b95670d6600012bd8dc",3,0.714,"Speed_Accuracy","Varying",-0.615665540596445,1,"incongruent"
"588e8b95670d6600012bd8dc",4,0.571,"Speed_Accuracy","Varying",-0.1824285881685,1,"congruent"
"588e8b95670d6600012bd8dc",5,0.802,"Speed_Accuracy","Varying",0.186541886876461,1,"congruent"
"588e8b95670d6600012bd8dc",6,0.634,"Speed_Accuracy","Varying",0.659327440770857,1,"incongruent"
"588e8b95670d6600012bd8dc",7,0.908,"Speed_Accuracy","Varying",1.05661111913839,1,"incongruent"
"588e8b95670d6600012bd8dc",1,1.48,"Speed_Accuracy","Varying",-1.4394449325056,1,"incongruent"
"588e8b95670d6600012bd8dc",3,0.66,"Speed_Accuracy","Varying",-0.416124869561167,1,"congruent"
"588e8b95670d6600012bd8dc",4,0.754,"Speed_Accuracy","Varying",-0.0071563771239994,1,"incongruent"
"588e8b95670d6600012bd8dc",5,0.6,"Speed_Accuracy","Varying",0.444057212334151,1,"congruent"
"588e8b95670d6600012bd8dc",6,0.438,"Speed_Accuracy","Varying",0.82606074922601,1,"incongruent"
"588e8b95670d6600012bd8dc",7,0.923,"Speed_Accuracy","Varying",1.13525890614554,1,"incongruent"
"588e8b95670d6600012bd8dc",8,0.733,"Speed_Accuracy","Varying",1.66242378705631,1,"incongruent"
"588e8b95670d6600012bd8dc",1,0.769,"Speed","Varying",-1.4394449325056,1,"congruent"
"588e8b95670d6600012bd8dc",2,0.641,"Speed","Varying",-1.0938440855999,1,"incongruent"
"588e8b95670d6600012bd8dc",3,0.563,"Speed","Varying",-0.693414495752082,1,"congruent"
"588e8b95670d6600012bd8dc",4,0.654,"Speed","Varying",-0.328039348113162,1,"incongruent"
"588e8b95670d6600012bd8dc",5,0.719,"Speed","Varying",0.0782326487694752,1,"incongruent"
"588e8b95670d6600012bd8dc",6,0.542,"Speed","Varying",0.513716680826196,1,"congruent"
"588e8b95670d6600012bd8dc",7,0.75,"Speed","Varying",0.869654094024258,1,"incongruent"
"588e8b95670d6600012bd8dc",8,0.467,"Speed","Varying",1.31907001977939,1,"congruent"
"588e8b95670d6600012bd8dc",9,0.587,"Speed","Varying",1.64130123854582,1,"incongruent"
"588e8b95670d6600012bd8dc",1,0.95,"Accuracy","Varying",-1.4394449325056,0,"incongruent"
"588e8b95670d6600012bd8dc",2,0.721,"Accuracy","Varying",-1.01249980303822,1,"congruent"
"588e8b95670d6600012bd8dc",3,1.612,"Accuracy","Varying",-0.576116939129993,1,"incongruent"
"588e8b95670d6600012bd8dc",4,0.695,"Accuracy","Varying",0.260695514626058,1,"congruent"
"588e8b95670d6600012bd8dc",5,0.799,"Accuracy","Varying",0.685393564464655,1,"incongruent"
"588e8b95670d6600012bd8dc",1,1.174,"Speed_Accuracy","Varying",-1.4394449325056,1,"congruent"
"588e8b95670d6600012bd8dc",2,0.652,"Speed_Accuracy","Varying",-0.911830635669075,1,"incongruent"
"588e8b95670d6600012bd8dc",3,0.611,"Speed_Accuracy","Varying",-0.506457470637948,1,"congruent"
"588e8b95670d6600012bd8dc",4,0.774,"Speed_Accuracy","Varying",-0.119510358562782,1,"incongruent"
"588e8b95670d6600012bd8dc",5,0.891,"Speed_Accuracy","Varying",0.340691549410471,1,"incongruent"
"588e8b95670d6600012bd8dc",6,0.789,"Speed_Accuracy","Varying",0.853475120697073,1,"incongruent"
"588e8b95670d6600012bd8dc",7,0.77,"Speed_Accuracy","Varying",1.32041826755665,1,"incongruent"
"588e8b95670d6600012bd8dc",8,0.642,"Speed_Accuracy","Varying",1.77882251182688,1,"congruent"
"588e8b95670d6600012bd8dc",1,1.57,"Speed","Varying",-1.4394449325056,1,"incongruent"
"588e8b95670d6600012bd8dc",2,0.608,"Speed","Varying",-0.733861929070044,1,"congruent"
"588e8b95670d6600012bd8dc",3,0.551,"Speed","Varying",-0.348263064772143,1,"congruent"
"588e8b95670d6600012bd8dc",4,0.602,"Speed","Varying",0.011719091757716,1,"incongruent"
"588e8b95670d6600012bd8dc",5,0.785,"Speed","Varying",0.394621460501086,1,"incongruent"
"588e8b95670d6600012bd8dc",6,1.252,"Speed","Varying",0.859766943657645,1,"incongruent"
"588e8b95670d6600012bd8dc",2,0.655,"Accuracy","Varying",-1.05699197968798,1,"congruent"
"588e8b95670d6600012bd8dc",3,0.624,"Accuracy","Varying",-0.65027056687959,1,"congruent"
"588e8b95670d6600012bd8dc",4,0.921,"Accuracy","Varying",-0.257481047769606,1,"incongruent"
"588e8b95670d6600012bd8dc",5,0.916,"Accuracy","Varying",0.26878500128965,1,"incongruent"
"588e8b95670d6600012bd8dc",6,0.958,"Accuracy","Varying",0.792803970720131,1,"incongruent"
"588e8b95670d6600012bd8dc",1,1.518,"Speed","Varying",-1.4394449325056,1,"incongruent"
"588e8b95670d6600012bd8dc",2,0.569,"Speed","Varying",-0.75723155720931,1,"congruent"
"588e8b95670d6600012bd8dc",3,0.742,"Speed","Varying",-0.389159914015859,1,"incongruent"
"588e8b95670d6600012bd8dc",4,0.432,"Speed","Varying",0.056660684333229,1,"incongruent"
"588e8b95670d6600012bd8dc",5,0.596,"Speed","Varying",0.363162345698227,1,"congruent"
"588e8b95670d6600012bd8dc",6,0.741,"Speed","Varying",0.743368218887067,1,"incongruent"
"588e8b95670d6600012bd8dc",7,0.758,"Speed","Varying",1.1887394013104,1,"incongruent"
"588e8b95670d6600012bd8dc",9,0.728,"Speed","Varying",2.02060827988314,1,"congruent"
"588e8b95670d6600012bd8dc",10,0.744,"Speed","Varying",2.46013705527166,1,"congruent"
"588e8b95670d6600012bd8dc",1,0.791,"Accuracy","Varying",-1.4394449325056,1,"congruent"
"588e8b95670d6600012bd8dc",2,0.575,"Accuracy","Varying",-1.08395693523329,0,"incongruent"
"588e8b95670d6600012bd8dc",3,0.564,"Accuracy","Varying",-0.713188796485308,1,"congruent"
"588e8b95670d6600012bd8dc",4,0.685,"Accuracy","Varying",-0.347364232920632,1,"incongruent"
"588e8b95670d6600012bd8dc",5,0.609,"Accuracy","Varying",0.0728396576604136,1,"congruent"
"588e8b95670d6600012bd8dc",6,0.988,"Accuracy","Varying",0.45888793788407,1,"incongruent"
"588e8b95670d6600012bd8dc",7,0.519,"Accuracy","Varying",1.01526485396892,1,"congruent"
"588e8b95670d6600012bd8dc",1,1.431,"Speed_Accuracy","Varying",-1.4394449325056,1,"incongruent"
"588e8b95670d6600012bd8dc",2,0.59,"Speed_Accuracy","Varying",-0.796330742750007,1,"congruent"
"588e8b95670d6600012bd8dc",3,0.698,"Speed_Accuracy","Varying",-0.418821365115698,1,"incongruent"
"588e8b95670d6600012bd8dc",4,0.681,"Speed_Accuracy","Varying",0.00722493250016474,1,"congruent"
"588e8b95670d6600012bd8dc",5,0.588,"Speed_Accuracy","Varying",0.42563115937819,1,"congruent"
"588e8b95670d6600012bd8dc",6,0.615,"Speed_Accuracy","Varying",0.802241705160989,1,"incongruent"
"588e8b95670d6600012bd8dc",1,0.83,"Speed_Accuracy","Varying",-1.4394449325056,1,"congruent"
"588e8b95670d6600012bd8dc",2,0.825,"Speed_Accuracy","Varying",-1.06642971412884,1,"incongruent"
"588e8b95670d6600012bd8dc",3,0.51,"Speed_Accuracy","Varying",-0.583307593942075,1,"congruent"
"588e8b95670d6600012bd8dc",4,0.528,"Speed_Accuracy","Varying",-0.241751490368177,1,"incongruent"
"588e8b95670d6600012bd8dc",5,0.662,"Speed_Accuracy","Varying",0.107894099869314,1,"congruent"
"588e8b95670d6600012bd8dc",6,0.83,"Speed_Accuracy","Varying",0.517761424157992,1,"incongruent"
"588e8b95670d6600012bd8dc",7,0.895,"Speed_Accuracy","Varying",1.00313062397353,1,"congruent"
"588e8b95670d6600012bd8dc",8,0.617,"Speed_Accuracy","Varying",1.51771185896315,1,"incongruent"
"588e8b95670d6600012bd8dc",9,0.671,"Speed_Accuracy","Varying",1.90735546659285,1,"congruent"
"588e8b95670d6600012bd8dc",1,1.099,"Accuracy","Varying",-1.4394449325056,1,"congruent"
"588e8b95670d6600012bd8dc",2,1.355,"Accuracy","Varying",-0.94553683010071,1,"incongruent"
"588e8b95670d6600012bd8dc",3,1.321,"Accuracy","Varying",-0.224224269263727,1,"incongruent"
"588e8b95670d6600012bd8dc",4,0.9,"Accuracy","Varying",0.481808150097581,1,"incongruent"
"588e8b95670d6600012bd8dc",5,0.651,"Accuracy","Varying",0.99863646471598,1,"congruent"
"588e8b95670d6600012bd8dc",6,0.681,"Accuracy","Varying",1.40356021382135,1,"congruent"
"588e8b95670d6600012bd8dc",7,0.558,"Accuracy","Varying",1.82196644069938,1,"incongruent"
"588e8b95670d6600012bd8dc",8,0.748,"Accuracy","Varying",2.18509450870952,1,"congruent"
"588e8b95670d6600012bd8dc",1,0.951,"Speed","Varying",-1.4394449325056,1,"incongruent"
"588e8b95670d6600012bd8dc",2,0.677,"Speed","Varying",-1.01205038711247,1,"congruent"
"588e8b95670d6600012bd8dc",3,0.865,"Speed","Varying",-0.595441823937464,1,"incongruent"
"588e8b95670d6600012bd8dc",4,0.653,"Speed","Varying",-0.0943430667204945,1,"incongruent"
"588e8b95670d6600012bd8dc",5,0.796,"Speed","Varying",0.311479514236387,1,"congruent"
"588e8b95670d6600012bd8dc",6,0.716,"Speed","Varying",0.781568572576253,1,"congruent"
"588e8b95670d6600012bd8dc",7,0.707,"Speed","Varying",1.21570435685571,1,"congruent"
"588e8b95670d6600012bd8dc",8,0.506,"Speed","Varying",1.64579539780337,1,"incongruent"
"588e8b95670d6600012bd8dc",9,0.935,"Speed","Varying",1.98555383767424,1,"incongruent"
"588e8b95670d6600012bd8dc",1,1.357,"Accuracy","Varying",-1.4394449325056,1,"incongruent"
"588e8b95670d6600012bd8dc",2,0.589,"Accuracy","Varying",-0.829587521255886,1,"congruent"
"588e8b95670d6600012bd8dc",3,1.016,"Accuracy","Varying",-0.452527559547333,1,"incongruent"
"588e8b95670d6600012bd8dc",4,0.615,"Accuracy","Varying",0.116433002458661,1,"congruent"
"588e8b95670d6600012bd8dc",5,0.71,"Accuracy","Varying",0.505177778236848,1,"congruent"
"588e8b95670d6600012bd8dc",6,0.822,"Accuracy","Varying",0.936617066961772,1,"incongruent"
"588e8b95670d6600012bd8dc",7,0.973,"Accuracy","Varying",1.41839093937127,1,"incongruent"
"588e8b95670d6600012bd8dc",1,1.645,"Speed_Accuracy","Varying",-1.4394449325056,1,"congruent"
"588e8b95670d6600012bd8dc",2,1.046,"Speed_Accuracy","Varying",-0.700155734638409,1,"incongruent"
"588e8b95670d6600012bd8dc",3,0.657,"Speed_Accuracy","Varying",-0.117712694859761,1,"congruent"
"588e8b95670d6600012bd8dc",4,0.954,"Speed_Accuracy","Varying",0.289907549800141,1,"incongruent"
"588e8b95670d6600012bd8dc",5,0.842,"Speed_Accuracy","Varying",0.831004324409317,1,"incongruent"
"588e8b95670d6600012bd8dc",6,0.689,"Speed_Accuracy","Varying",1.32176651533392,1,"incongruent"
"588e8b95670d6600012bd8dc",1,0.877,"Speed_Accuracy","Varying",-1.4394449325056,1,"congruent"
"588e8b95670d6600012bd8dc",2,0.704,"Speed_Accuracy","Varying",-1.04530716561835,1,"incongruent"
"588e8b95670d6600012bd8dc",3,0.622,"Speed_Accuracy","Varying",-0.616564372447955,1,"congruent"
"588e8b95670d6600012bd8dc",5,0.976,"Speed_Accuracy","Varying",0.387430805689004,1,"congruent"
"588e8b95670d6600012bd8dc",6,0.681,"Speed_Accuracy","Varying",0.938414730664793,1,"incongruent"
"588e8b95670d6600012bd8dc",7,0.67,"Speed_Accuracy","Varying",1.35682095754282,1,"congruent"
"588e8b95670d6600012bd8dc",8,0.615,"Speed_Accuracy","Varying",1.77028360923754,1,"incongruent"
"588e8b95670d6600012bd8dc",9,0.54,"Speed_Accuracy","Varying",2.15902838501572,1,"congruent"
"588e8b95670d6600012bd8dc",1,1.068,"Speed","Varying",-1.4394449325056,1,"congruent"
"588e8b95670d6600012bd8dc",2,0.915,"Speed","Varying",-0.959468723799119,1,"incongruent"
"588e8b95670d6600012bd8dc",3,0.647,"Speed","Varying",-0.435899170294393,1,"congruent"
"588e8b95670d6600012bd8dc",4,0.796,"Speed","Varying",-0.0327730848920418,1,"incongruent"
"588e8b95670d6600012bd8dc",5,0.502,"Speed","Varying",0.437315973447824,1,"incongruent"
"588e8b95670d6600012bd8dc",6,0.703,"Speed","Varying",0.775276749615681,1,"incongruent"
"588e8b95670d6600012bd8dc",1,0.903,"Speed","Varying",-1.4394449325056,1,"incongruent"
"588e8b95670d6600012bd8dc",2,0.571,"Speed","Varying",-1.03362235154871,1,"congruent"
"588e8b95670d6600012bd8dc",3,0.645,"Speed","Varying",-0.664651876503754,1,"incongruent"
"588e8b95670d6600012bd8dc",4,0.575,"Speed","Varying",-0.262424622952913,1,"congruent"
"588e8b95670d6600012bd8dc",5,0.739,"Speed","Varying",0.108343515795069,1,"congruent"
"588e8b95670d6600012bd8dc",6,1.178,"Speed","Varying",0.552815866366892,1,"incongruent"
"588e8b95670d6600012bd8dc",1,0.854,"Speed","Varying",-1.4394449325056,1,"congruent"
"588e8b95670d6600012bd8dc",2,0.557,"Speed","Varying",-1.05564373191072,1,"incongruent"
"588e8b95670d6600012bd8dc",3,0.433,"Speed","Varying",-0.692965079826327,1,"congruent"
"588e8b95670d6600012bd8dc",4,0.632,"Speed","Varying",-0.386014002535573,1,"incongruent"
"588e8b95670d6600012bd8dc",5,0.638,"Speed","Varying",0.0103708439804506,1,"congruent"
"588e8b95670d6600012bd8dc",6,0.676,"Speed","Varying",0.409452186051006,1,"incongruent"
"588e8b95670d6600012bd8dc",7,0.603,"Speed","Varying",0.825611333300255,1,"incongruent"
"588e8b95670d6600012bd8dc",8,0.688,"Speed","Varying",1.20896311796938,1,"incongruent"
"588e8b95670d6600012bd8dc",1,1.147,"Speed_Accuracy","Varying",-1.4394449325056,1,"incongruent"
"588e8b95670d6600012bd8dc",2,0.647,"Speed_Accuracy","Varying",-0.923964865664463,1,"congruent"
"588e8b95670d6600012bd8dc",3,0.46,"Speed_Accuracy","Varying",-0.520838780262112,1,"congruent"
"588e8b95670d6600012bd8dc",4,0.662,"Speed_Accuracy","Varying",-0.20175347297597,1,"incongruent"
"588e8b95670d6600012bd8dc",5,0.767,"Speed_Accuracy","Varying",0.208113851312708,1,"incongruent"
"588e8b95670d6600012bd8dc",6,0.944,"Speed_Accuracy","Varying",0.665169847805674,1,"incongruent"
"588e8b95670d6600012bd8dc",7,0.6,"Speed_Accuracy","Varying",1.2017724631573,1,"congruent"
"588e8b95670d6600012bd8dc",8,0.583,"Speed_Accuracy","Varying",1.58377600004916,1,"congruent"
"588e8b95670d6600012bd8dc",1,1.515,"Speed_Accuracy","Varying",-1.4394449325056,1,"incongruent"
"588e8b95670d6600012bd8dc",2,0.611,"Speed_Accuracy","Varying",-0.758579804986576,1,"congruent"
"588e8b95670d6600012bd8dc",3,0.673,"Speed_Accuracy","Varying",-0.371632692911409,1,"congruent"
"588e8b95670d6600012bd8dc",4,0.529,"Speed_Accuracy","Varying",0.0431782065605751,1,"incongruent"
"588e8b95670d6600012bd8dc",5,0.468,"Speed_Accuracy","Varying",0.393273212723821,1,"congruent"
"588e8b95670d6600012bd8dc",6,0.821,"Speed_Accuracy","Varying",0.715953847416004,1,"incongruent"
"588e8b95670d6600012bd8dc",1,1.125,"Accuracy","Varying",-1.4394449325056,1,"incongruent"
"588e8b95670d6600012bd8dc",2,0.53,"Accuracy","Varying",-0.933852016031076,1,"congruent"
"588e8b95670d6600012bd8dc",3,0.653,"Accuracy","Varying",-0.583307593942075,1,"congruent"
"588e8b95670d6600012bd8dc",4,1.041,"Accuracy","Varying",-0.177485012985193,1,"incongruent"
"588e8b95670d6600012bd8dc",5,0.536,"Accuracy","Varying",0.402710947164679,1,"congruent"
"588e8b95670d6600012bd8dc",6,0.663,"Accuracy","Varying",0.75595186480821,1,"incongruent"
"588e8b95670d6600012bd8dc",7,0.721,"Accuracy","Varying",1.16626860502264,1,"incongruent"
"588e8b95670d6600012bd8dc",2,0.686,"Accuracy","Varying",-1.03901534265778,1,"congruent"
"588e8b95670d6600012bd8dc",3,0.576,"Accuracy","Varying",-0.618362036150975,1,"incongruent"
"588e8b95670d6600012bd8dc",4,0.695,"Accuracy","Varying",-0.247144481477238,1,"congruent"
"588e8b95670d6600012bd8dc",5,0.593,"Accuracy","Varying",0.177553568361359,1,"congruent"
"588e8b95670d6600012bd8dc",6,0.848,"Accuracy","Varying",0.556411193772933,1,"incongruent"
"588e8b95670d6600012bd8dc",7,0.686,"Accuracy","Varying",1.04986988025206,0,"incongruent"
"588e8b95670d6600012bd8dc",8,1.107,"Accuracy","Varying",1.47052318675887,1,"congruent"
"588e8b95670d6600012bd8dc",9,1.376,"Accuracy","Varying",2.08038059800858,1,"incongruent"
"588e8b95670d6600012bd8dc",1,1.042,"Accuracy","Varying",-1.4394449325056,1,"incongruent"
"588e8b95670d6600012bd8dc",2,0.654,"Accuracy","Varying",-0.971153537868752,1,"congruent"
"588e8b95670d6600012bd8dc",3,0.618,"Accuracy","Varying",-0.564881540986115,1,"incongruent"
"588e8b95670d6600012bd8dc",4,0.684,"Accuracy","Varying",-0.174788517430663,1,"congruent"
"588e8b95670d6600012bd8dc",5,0.638,"Accuracy","Varying",0.244965957224628,1,"incongruent"
"588e8b95670d6600012bd8dc",6,0.491,"Accuracy","Varying",0.644047299295183,1,"congruent"
"588e8b95670d6600012bd8dc",7,0.587,"Accuracy","Varying",0.977064500279734,1,"congruent"
"588e8b95670d6600012bd8dc",8,0.686,"Accuracy","Varying",1.35322563013678,1,"incongruent"
"588e8b95670d6600012bd8dc",1,0.907,"Speed_Accuracy","Varying",-1.4394449325056,1,"congruent"
"588e8b95670d6600012bd8dc",2,0.492,"Speed_Accuracy","Varying",-1.03182468784569,1,"incongruent"
"588e8b95670d6600012bd8dc",3,0.403,"Speed_Accuracy","Varying",-0.698358070935388,1,"congruent"
"588e8b95670d6600012bd8dc",4,0.72,"Speed_Accuracy","Varying",-0.404889471417289,1,"incongruent"
"588e8b95670d6600012bd8dc",5,0.854,"Speed_Accuracy","Varying",0.0310439765651866,1,"incongruent"
"588e8b95670d6600012bd8dc",6,0.589,"Speed_Accuracy","Varying",0.527199158598849,1,"congruent"
"588e8b95670d6600012bd8dc",7,0.595,"Speed_Accuracy","Varying",0.904259120307403,0,"incongruent"
"588e8b95670d6600012bd8dc",1,1.111,"Speed","Varying",-1.4394449325056,1,"incongruent"
"588e8b95670d6600012bd8dc",2,0.613,"Speed","Varying",-0.940143838991648,1,"congruent"
"588e8b95670d6600012bd8dc",3,0.448,"Speed","Varying",-0.552297895064971,1,"congruent"
"588e8b95670d6600012bd8dc",4,0.647,"Speed","Varying",-0.238605578887891,1,"incongruent"
"588e8b95670d6600012bd8dc",5,0.5,"Speed","Varying",0.16452050651446,1,"incongruent"
"588e8b95670d6600012bd8dc",6,0.71,"Speed","Varying",0.501582450830807,1,"incongruent"
"588e8b95670d6600012bd8dc",7,0.629,"Speed","Varying",0.933021739555731,1,"incongruent"
"588e8b95670d6600012bd8dc",8,0.722,"Speed","Varying",1.32805833829449,1,"congruent"
"588e8b95670d6600012bd8dc",1,0.912,"Accuracy","Fixed",-1.4394449325056,1,"incongruent"
"588e8b95670d6600012bd8dc",2,0.792,"Accuracy","Fixed",-1.02957760821692,1,"congruent"
"588e8b95670d6600012bd8dc",3,0.769,"Accuracy","Fixed",-0.561286213580074,1,"congruent"
"588e8b95670d6600012bd8dc",4,0.65,"Accuracy","Fixed",-0.103331385235597,1,"incongruent"
"588e8b95670d6600012bd8dc",5,0.976,"Accuracy","Fixed",0.301142947944019,1,"congruent"
"588e8b95670d6600012bd8dc",6,0.691,"Accuracy","Fixed",0.852126872919808,1,"incongruent"
"588e8b95670d6600012bd8dc",7,0.929,"Accuracy","Fixed",1.27502725905538,1,"congruent"
"588e8b95670d6600012bd8dc",8,0.737,"Accuracy","Fixed",1.80488863552068,1,"incongruent"
"588e8b95670d6600012bd8dc",9,0.73,"Accuracy","Fixed",2.248462154241,1,"congruent"
"588e8b95670d6600012bd8dc",3,1.057,"Accuracy","Fixed",-0.319051029598059,1,"incongruent"
"588e8b95670d6600012bd8dc",4,0.866,"Accuracy","Fixed",0.268335585363895,1,"incongruent"
"588e8b95670d6600012bd8dc",5,0.717,"Accuracy","Fixed",0.769883758506619,1,"congruent"
"588e8b95670d6600012bd8dc",6,0.965,"Accuracy","Fixed",1.20446895871183,1,"incongruent"
"588e8b95670d6600012bd8dc",7,0.689,"Accuracy","Fixed",1.75050930850431,1,"congruent"
"588e8b95670d6600012bd8dc",8,1.047,"Accuracy","Fixed",2.17251086278838,1,"incongruent"
"588e8b95670d6600012bd8dc",1,1.44,"Accuracy","Fixed",-1.4394449325056,0,"incongruent"
"588e8b95670d6600012bd8dc",2,1.209,"Accuracy","Fixed",-0.79228599941821,1,"congruent"
"588e8b95670d6600012bd8dc",3,0.888,"Accuracy","Fixed",-0.136588163741477,1,"incongruent"
"588e8b95670d6600012bd8dc",4,0.785,"Accuracy","Fixed",0.374847159767861,1,"congruent"
"588e8b95670d6600012bd8dc",5,0.732,"Accuracy","Fixed",0.839992642924419,1,"incongruent"
"588e8b95670d6600012bd8dc",1,0.787,"Accuracy","Fixed",-1.4394449325056,1,"congruent"
"588e8b95670d6600012bd8dc",2,0.706,"Accuracy","Fixed",-1.08575459893631,1,"incongruent"
"588e8b95670d6600012bd8dc",3,1.073,"Accuracy","Fixed",-0.656112973914406,1,"incongruent"
"588e8b95670d6600012bd8dc",4,0.749,"Accuracy","Fixed",-0.0615357041403701,1,"congruent"
"588e8b95670d6600012bd8dc",5,0.726,"Accuracy","Fixed",0.387430805689004,1,"incongruent"
"588e8b95670d6600012bd8dc",6,0.983,"Accuracy","Fixed",0.82606074922601,1,"incongruent"
"588e8b95670d6600012bd8dc",7,0.706,"Accuracy","Fixed",1.38019058568209,1,"incongruent"
"588e8b95670d6600012bd8dc",8,0.52,"Accuracy","Fixed",1.80983221070399,1,"congruent"
"588e8b95670d6600012bd8dc",1,1.15,"Accuracy","Fixed",-1.4394449325056,1,"congruent"
"588e8b95670d6600012bd8dc",2,0.55,"Accuracy","Fixed",-0.922616617887198,1,"incongruent"
"588e8b95670d6600012bd8dc",3,0.636,"Accuracy","Fixed",-0.563083877283095,1,"congruent"
"588e8b95670d6600012bd8dc",4,0.788,"Accuracy","Fixed",-0.16490136706405,1,"incongruent"
"588e8b95670d6600012bd8dc",5,0.672,"Accuracy","Fixed",0.301592363869775,1,"congruent"
"588e8b95670d6600012bd8dc",6,0.736,"Accuracy","Fixed",0.715953847416004,1,"incongruent"
"588e8b95670d6600012bd8dc",7,0.576,"Accuracy","Fixed",1.15907795021056,1,"incongruent"
"588e8b95670d6600012bd8dc",8,0.824,"Accuracy","Fixed",1.5302955048843,1,"incongruent"
"588e8b95670d6600012bd8dc",9,0.537,"Accuracy","Fixed",2.01296820914531,1,"congruent"
"588e8b95670d6600012bd8dc",10,0.91,"Accuracy","Fixed",2.36665854271459,1,"incongruent"
"588e8b95670d6600012bd8dc",1,1.575,"Accuracy","Fixed",-1.4394449325056,1,"incongruent"
"588e8b95670d6600012bd8dc",2,0.74,"Accuracy","Fixed",-0.731614849441268,1,"congruent"
"588e8b95670d6600012bd8dc",3,0.857,"Accuracy","Fixed",-0.28669308294369,1,"incongruent"
"588e8b95670d6600012bd8dc",4,0.635,"Accuracy","Fixed",0.210810346867238,1,"congruent"
"588e8b95670d6600012bd8dc",5,0.708,"Accuracy","Fixed",0.608543441160528,1,"incongruent"
"588e8b95670d6600012bd8dc",6,0.709,"Accuracy","Fixed",1.03908389803394,1,"incongruent"
"588e8b95670d6600012bd8dc",1,1.282,"Accuracy","Fixed",-1.4394449325056,1,"incongruent"
"588e8b95670d6600012bd8dc",2,0.649,"Accuracy","Fixed",-0.863293715687521,1,"congruent"
"588e8b95670d6600012bd8dc",3,0.879,"Accuracy","Fixed",-0.45926879843366,1,"incongruent"
"588e8b95670d6600012bd8dc",4,0.945,"Accuracy","Fixed",0.0481217817438815,1,"incongruent"
"588e8b95670d6600012bd8dc",5,0.678,"Accuracy","Fixed",0.585173813021261,1,"congruent"
"588e8b95670d6600012bd8dc",6,1.047,"Accuracy","Fixed",1.00223179212202,1,"incongruent"
"588e8b95670d6600012bd8dc",7,1.147,"Accuracy","Fixed",1.58512424782642,1,"congruent"
"588e8b95670d6600012bd8dc",8,0.728,"Accuracy","Fixed",2.21295829610634,1,"congruent"
"588e8b95670d6600012bd8dc",1,0.968,"Accuracy","Fixed",-1.4394449325056,1,"incongruent"
"588e8b95670d6600012bd8dc",2,0.585,"Accuracy","Fixed",-1.00441031637463,1,"congruent"
"588e8b95670d6600012bd8dc",3,0.637,"Accuracy","Fixed",-0.629148018369099,1,"congruent"
"588e8b95670d6600012bd8dc",4,0.713,"Accuracy","Fixed",-0.230516092224299,1,"incongruent"
"588e8b95670d6600012bd8dc",5,0.652,"Accuracy","Fixed",0.202271444277891,1,"congruent"
"588e8b95670d6600012bd8dc",6,0.868,"Accuracy","Fixed",0.607644609309018,1,"incongruent"
"588e8b95670d6600012bd8dc",7,0.614,"Accuracy","Fixed",1.11009161430325,1,"incongruent"
"588e8b95670d6600012bd8dc",8,0.917,"Accuracy","Fixed",1.49838697415568,1,"incongruent"
"588e8b95670d6600012bd8dc",1,1.056,"Accuracy","Fixed",-1.4394449325056,1,"congruent"
"588e8b95670d6600012bd8dc",2,0.99,"Accuracy","Fixed",-0.96486171490818,1,"incongruent"
"588e8b95670d6600012bd8dc",3,0.82,"Accuracy","Fixed",-0.40758596697182,1,"incongruent"
"588e8b95670d6600012bd8dc",4,0.669,"Accuracy","Fixed",0.0732890735861688,1,"congruent"
"588e8b95670d6600012bd8dc",5,0.661,"Accuracy","Fixed",0.486302309355133,1,"congruent"
"588e8b95670d6600012bd8dc",6,0.649,"Accuracy","Fixed",0.895720217718056,1,"incongruent"
"588e8b95670d6600012bd8dc",7,0.708,"Accuracy","Fixed",1.29974513497192,1,"congruent"
"588e8b95670d6600012bd8dc",1,1.351,"Accuracy","Fixed",-1.4394449325056,1,"congruent"
"588e8b95670d6600012bd8dc",2,1.15,"Accuracy","Fixed",-0.832284016810417,1,"incongruent"
"588e8b95670d6600012bd8dc",3,0.949,"Accuracy","Fixed",-0.203101720753236,1,"incongruent"
"588e8b95670d6600012bd8dc",4,0.695,"Accuracy","Fixed",0.335747974227164,1,"incongruent"
"588e8b95670d6600012bd8dc",5,0.592,"Accuracy","Fixed",0.760446024065762,1,"congruent"
"588e8b95670d6600012bd8dc",6,0.423,"Accuracy","Fixed",1.13885423355158,1,"congruent"
"588e8b95670d6600012bd8dc",7,0.654,"Accuracy","Fixed",1.44131115158478,1,"congruent"
"588e8b95670d6600012bd8dc",8,0.823,"Accuracy","Fixed",1.84758314846742,1,"incongruent"
"588e8b95670d6600012bd8dc",1,1.171,"Accuracy","Fixed",-1.4394449325056,1,"incongruent"
"588e8b95670d6600012bd8dc",2,0.614,"Accuracy","Fixed",-0.91317888344634,1,"congruent"
"588e8b95670d6600012bd8dc",3,0.636,"Accuracy","Fixed",-0.524883523593908,1,"congruent"
"588e8b95670d6600012bd8dc",4,1.316,"Accuracy","Fixed",-0.126701013374864,1,"incongruent"
"588e8b95670d6600012bd8dc",5,1.027,"Accuracy","Fixed",0.577084326357669,1,"incongruent"
"588e8b95670d6600012bd8dc",6,0.894,"Accuracy","Fixed",1.15098846354697,1,"incongruent"
"588e8b95670d6600012bd8dc",7,0.574,"Accuracy","Fixed",1.66512028261084,1,"congruent"
"588e8b95670d6600012bd8dc",1,0.988,"Accuracy","Fixed",-1.4394449325056,1,"incongruent"
"588e8b95670d6600012bd8dc",2,0.613,"Accuracy","Fixed",-0.995421997859529,1,"congruent"
"588e8b95670d6600012bd8dc",3,0.684,"Accuracy","Fixed",-0.607576053932852,1,"congruent"
"588e8b95670d6600012bd8dc",4,0.69,"Accuracy","Fixed",-0.187821579277561,1,"incongruent"
"588e8b95670d6600012bd8dc",5,1.175,"Accuracy","Fixed",0.23462939093226,1,"incongruent"
"588e8b95670d6600012bd8dc",6,0.672,"Accuracy","Fixed",0.87504708513332,1,"congruent"
"588e8b95670d6600012bd8dc",7,0.925,"Accuracy","Fixed",1.28940856867955,1,"incongruent"
"588e8b95670d6600012bd8dc",8,0.87,"Accuracy","Fixed",1.81747228144183,1,"incongruent"
"588e8b95670d6600012bd8dc",9,0.913,"Accuracy","Fixed",2.32081811828757,1,"incongruent"
"588e8b95670d6600012bd8dc",1,1.246,"Accuracy","Fixed",-1.4394449325056,1,"incongruent"
"588e8b95670d6600012bd8dc",2,0.726,"Accuracy","Fixed",-0.879472689014706,1,"congruent"
"588e8b95670d6600012bd8dc",3,0.872,"Accuracy","Fixed",-0.440842745477699,1,"congruent"
"588e8b95670d6600012bd8dc",4,0.727,"Accuracy","Fixed",0.0634019232195559,1,"incongruent"
"588e8b95670d6600012bd8dc",5,0.732,"Accuracy","Fixed",0.502481282682317,1,"congruent"
"588e8b95670d6600012bd8dc",1,0.772,"Accuracy","Fixed",-1.4394449325056,1,"congruent"
"588e8b95670d6600012bd8dc",2,0.52,"Accuracy","Fixed",-1.09249583782264,1,"incongruent"
"588e8b95670d6600012bd8dc",3,0.632,"Accuracy","Fixed",-0.746445574991187,1,"incongruent"
"588e8b95670d6600012bd8dc",4,0.631,"Accuracy","Fixed",-0.350060728475163,1,"congruent"
"588e8b95670d6600012bd8dc",5,0.665,"Accuracy","Fixed",0.0458747021151059,1,"incongruent"
"588e8b95670d6600012bd8dc",6,0.719,"Accuracy","Fixed",0.457090274181049,1,"congruent"
"588e8b95670d6600012bd8dc",7,0.723,"Accuracy","Fixed",0.89257430623777,1,"incongruent"
"588e8b95670d6600012bd8dc",1,0.955,"Accuracy","Fixed",-1.4394449325056,1,"incongruent"
"588e8b95670d6600012bd8dc",2,0.69,"Accuracy","Fixed",-1.01025272340945,1,"congruent"
"588e8b95670d6600012bd8dc",3,0.66,"Accuracy","Fixed",-0.587801753199627,1,"congruent"
"588e8b95670d6600012bd8dc",4,0.541,"Accuracy","Fixed",-0.178833260762459,1,"incongruent"
"588e8b95670d6600012bd8dc",5,0.886,"Accuracy","Fixed",0.176654736509849,1,"incongruent"
"588e8b95670d6600012bd8dc",6,0.797,"Accuracy","Fixed",0.687191228167676,1,"incongruent"
"588e8b95670d6600012bd8dc",7,0.887,"Accuracy","Fixed",1.1577297024333,1,"congruent"
"588e8b95670d6600012bd8dc",1,1.158,"Accuracy","Fixed",-1.4394449325056,1,"congruent"
"588e8b95670d6600012bd8dc",2,0.923,"Accuracy","Fixed",-0.919021290481157,1,"incongruent"
"588e8b95670d6600012bd8dc",3,0.574,"Accuracy","Fixed",-0.39185640957039,1,"congruent"
"588e8b95670d6600012bd8dc",4,0.837,"Accuracy","Fixed",-0.0215376867481635,1,"incongruent"
"588e8b95670d6600012bd8dc",5,0.646,"Accuracy","Fixed",0.466977424547662,1,"incongruent"
"588e8b95670d6600012bd8dc",6,0.762,"Accuracy","Fixed",0.869654094024258,1,"incongruent"
"588e8b95670d6600012bd8dc",7,1.13,"Accuracy","Fixed",1.32446301088845,1,"congruent"
"588e8b95670d6600012bd8dc",8,0.905,"Accuracy","Fixed",1.94465698843053,1,"congruent"
"588e8b95670d6600012bd8dc",1,1.726,"Accuracy","Fixed",-1.4394449325056,1,"congruent"
"588e8b95670d6600012bd8dc",2,0.882,"Accuracy","Fixed",-0.663753044652243,1,"incongruent"
"588e8b95670d6600012bd8dc",3,0.635,"Accuracy","Fixed",-0.155014216697437,1,"congruent"
"588e8b95670d6600012bd8dc",4,0.736,"Accuracy","Fixed",0.242718877595853,1,"incongruent"
"588e8b95670d6600012bd8dc",5,0.813,"Accuracy","Fixed",0.68584298039041,0,"incongruent"
"588e8b95670d6600012bd8dc",6,1.545,"Accuracy","Fixed",1.16357210946811,1,"incongruent"
"588e8b95670d6600012bd8dc",1,1.175,"Accuracy","Fixed",-1.4394449325056,1,"congruent"
"588e8b95670d6600012bd8dc",2,0.619,"Accuracy","Fixed",-0.91138121974332,1,"incongruent"
"588e8b95670d6600012bd8dc",3,0.642,"Accuracy","Fixed",-0.520838780262112,1,"congruent"
"588e8b95670d6600012bd8dc",4,0.597,"Accuracy","Fixed",-0.119959774488537,1,"incongruent"
"588e8b95670d6600012bd8dc",5,0.619,"Accuracy","Fixed",0.260695514626058,1,"congruent"
"588e8b95670d6600012bd8dc",6,0.808,"Accuracy","Fixed",0.651237954107265,1,"incongruent"
"588e8b95670d6600012bd8dc",7,0.664,"Accuracy","Fixed",1.12672000355619,1,"incongruent"
"588e8b95670d6600012bd8dc",8,0.631,"Accuracy","Fixed",1.53748615969638,1,"incongruent"
"588e8b95670d6600012bd8dc",1,1.781,"Accuracy","Fixed",-1.4394449325056,1,"congruent"
"588e8b95670d6600012bd8dc",2,0.611,"Accuracy","Fixed",-0.639035168735711,1,"incongruent"
"588e8b95670d6600012bd8dc",3,0.675,"Accuracy","Fixed",-0.252088056660545,1,"congruent"
"588e8b95670d6600012bd8dc",4,0.825,"Accuracy","Fixed",0.16362167466295,1,"incongruent"
"588e8b95670d6600012bd8dc",5,0.794,"Accuracy","Fixed",0.646743794849714,0,"incongruent"
"588e8b95670d6600012bd8dc",6,0.864,"Accuracy","Fixed",1.11593402133807,1,"congruent"
"588e8b95670d6600012bd8dc",1,1.208,"Accuracy","Fixed",-1.4394449325056,0,"incongruent"
"588e8b95670d6600012bd8dc",2,1.01,"Accuracy","Fixed",-0.8965504941934,1,"congruent"
"588e8b95670d6600012bd8dc",3,1.054,"Accuracy","Fixed",-0.330286427741937,1,"incongruent"
"588e8b95670d6600012bd8dc",4,0.751,"Accuracy","Fixed",0.255751939442751,1,"incongruent"
"588e8b95670d6600012bd8dc",5,0.635,"Accuracy","Fixed",0.705617281123636,1,"congruent"
"588e8b95670d6600012bd8dc",6,0.692,"Accuracy","Fixed",1.10335037541693,1,"incongruent"
"588e8b95670d6600012bd8dc",7,0.636,"Accuracy","Fixed",1.52670017747826,1,"congruent"
"588e8b95670d6600012bd8dc",1,0.848,"Speed","Fixed",-1.4394449325056,1,"congruent"
"588e8b95670d6600012bd8dc",2,0.847,"Speed","Fixed",-1.05834022746525,1,"incongruent"
"588e8b95670d6600012bd8dc",3,0.797,"Speed","Fixed",-0.56533095691187,1,"congruent"
"588e8b95670d6600012bd8dc",4,0.89,"Speed","Fixed",-0.0947924826462496,1,"incongruent"
"588e8b95670d6600012bd8dc",5,0.768,"Speed","Fixed",0.417541672714598,1,"incongruent"
"588e8b95670d6600012bd8dc",6,0.524,"Speed","Fixed",0.87504708513332,1,"congruent"
"588e8b95670d6600012bd8dc",7,0.645,"Speed","Fixed",1.22289501166779,1,"incongruent"
"588e8b95670d6600012bd8dc",8,0.704,"Speed","Fixed",1.62512226521863,1,"incongruent"
"588e8b95670d6600012bd8dc",9,0.847,"Speed","Fixed",2.05386505838902,1,"incongruent"
"588e8b95670d6600012bd8dc",1,1.15,"Speed","Fixed",-1.4394449325056,1,"incongruent"
"588e8b95670d6600012bd8dc",2,0.686,"Speed","Fixed",-0.922616617887198,1,"congruent"
"588e8b95670d6600012bd8dc",3,0.688,"Speed","Fixed",-0.501963311380397,1,"congruent"
"588e8b95670d6600012bd8dc",4,0.676,"Speed","Fixed",-0.0804111730220855,1,"incongruent"
"588e8b95670d6600012bd8dc",5,0.774,"Speed","Fixed",0.335747974227164,1,"incongruent"
"588e8b95670d6600012bd8dc",6,0.952,"Speed","Fixed",0.795949882200417,1,"incongruent"
"588e8b95670d6600012bd8dc",7,0.792,"Speed","Fixed",1.33614782495808,1,"congruent"
"588e8b95670d6600012bd8dc",8,0.708,"Speed","Fixed",1.80443921959493,1,"incongruent"
"588e8b95670d6600012bd8dc",1,1.287,"Speed","Fixed",-1.4394449325056,1,"incongruent"
"588e8b95670d6600012bd8dc",2,0.871,"Speed","Fixed",-0.861046636058745,1,"congruent"
"588e8b95670d6600012bd8dc",3,0.739,"Speed","Fixed",-0.357251383287245,1,"incongruent"
"588e8b95670d6600012bd8dc",4,1.193,"Speed","Fixed",0.0872209672845778,1,"incongruent"
"588e8b95670d6600012bd8dc",5,1.185,"Speed","Fixed",0.735728148149229,1,"congruent"
"588e8b95670d6600012bd8dc",6,0.683,"Speed","Fixed",1.38064000160784,1,"congruent"
"588e8b95670d6600012bd8dc",7,0.668,"Speed","Fixed",1.79994506033738,1,"incongruent"
"588e8b95670d6600012bd8dc",1,1.191,"Speed","Fixed",-1.4394449325056,1,"congruent"
"588e8b95670d6600012bd8dc",2,1.219,"Speed","Fixed",-0.904190564931238,0,"incongruent"
"588e8b95670d6600012bd8dc",3,1.181,"Speed","Fixed",-0.243998569996953,0,"incongruent"
"588e8b95670d6600012bd8dc",4,0.902,"Speed","Fixed",0.399115619758638,1,"incongruent"
"588e8b95670d6600012bd8dc",5,0.733,"Speed","Fixed",0.916842766228547,1,"congruent"
"588e8b95670d6600012bd8dc",6,0.725,"Speed","Fixed",1.35861862124584,1,"congruent"
"588e8b95670d6600012bd8dc",7,0.958,"Speed","Fixed",1.79679914885709,1,"congruent"
"588e8b95670d6600012bd8dc",8,0.911,"Speed","Fixed",2.33969358716929,1,"incongruent"
"588e8b95670d6600012bd8dc",1,2.576,"Speed","Fixed",-1.4394449325056,1,"incongruent"
"588e8b95670d6600012bd8dc",2,0.645,"Speed","Fixed",-0.281749507760383,1,"congruent"
"588e8b95670d6600012bd8dc",3,0.764,"Speed","Fixed",0.120477745790457,1,"incongruent"
"588e8b95670d6600012bd8dc",4,1.574,"Speed","Fixed",0.576185494506159,1,"incongruent"
"588e8b95670d6600012bd8dc",5,0.675,"Speed","Fixed",1.39592014308351,1,"congruent"
"588e8b95670d6600012bd8dc",6,0.808,"Speed","Fixed",1.81162987440701,1,"congruent"
"588e8b95670d6600012bd8dc",1,0.899,"Speed","Fixed",-1.4394449325056,1,"congruent"
"588e8b95670d6600012bd8dc",2,0.954,"Speed","Fixed",-1.03542001525174,1,"incongruent"
"588e8b95670d6600012bd8dc",3,0.891,"Speed","Fixed",-0.49432324064256,1,"congruent"
"588e8b95670d6600012bd8dc",4,0.792,"Speed","Fixed",0.018460330644043,1,"incongruent"
"588e8b95670d6600012bd8dc",5,1.039,"Speed","Fixed",0.486751725280888,1,"incongruent"
"588e8b95670d6600012bd8dc",1,0.863,"Speed","Fixed",-1.4394449325056,1,"congruent"
"588e8b95670d6600012bd8dc",2,1.324,"Speed","Fixed",-1.05159898857892,0,"incongruent"
"588e8b95670d6600012bd8dc",3,1.087,"Speed","Fixed",-0.344218321440346,1,"incongruent"
"588e8b95670d6600012bd8dc",4,1.22,"Speed","Fixed",0.256650771294262,1,"incongruent"
"588e8b95670d6600012bd8dc",5,0.74,"Speed","Fixed",0.917292182154302,1,"congruent"
"588e8b95670d6600012bd8dc",6,1.126,"Speed","Fixed",1.36221394865188,1,"incongruent"
"588e8b95670d6600012bd8dc",1,2.098,"Speed","Fixed",-1.4394449325056,1,"incongruent"
"588e8b95670d6600012bd8dc",2,0.67,"Speed","Fixed",-0.496570320271335,1,"congruent"
"588e8b95670d6600012bd8dc",3,0.601,"Speed","Fixed",-0.0831076685766163,1,"congruent"
"588e8b95670d6600012bd8dc",4,1.156,"Speed","Fixed",0.299345284240999,1,"incongruent"
"588e8b95670d6600012bd8dc",5,0.737,"Speed","Fixed",0.931224075852711,1,"incongruent"
"588e8b95670d6600012bd8dc",1,1.549,"Speed","Fixed",-1.4394449325056,0,"incongruent"
"588e8b95670d6600012bd8dc",2,1.369,"Speed","Fixed",-0.743299663510901,1,"congruent"
"588e8b95670d6600012bd8dc",3,0.741,"Speed","Fixed",-0.0156952797133469,1,"congruent"
"588e8b95670d6600012bd8dc",4,1.57,"Speed","Fixed",0.429675902709986,1,"incongruent"
"588e8b95670d6600012bd8dc",5,1.069,"Speed","Fixed",1.24761288758432,1,"congruent"
"588e8b95670d6600012bd8dc",1,1.153,"Speed","Fixed",-1.4394449325056,1,"congruent"
"588e8b95670d6600012bd8dc",2,0.73,"Speed","Fixed",-0.921268370109933,1,"incongruent"
"588e8b95670d6600012bd8dc",3,0.863,"Speed","Fixed",-0.480840762869906,1,"incongruent"
"588e8b95670d6600012bd8dc",4,0.579,"Speed","Fixed",0.0193591624955532,1,"congruent"
"588e8b95670d6600012bd8dc",5,0.756,"Speed","Fixed",0.391924964946555,1,"incongruent"
"588e8b95670d6600012bd8dc",1,2.163,"Speed","Fixed",-1.4394449325056,1,"incongruent"
"588e8b95670d6600012bd8dc",2,0.876,"Speed","Fixed",-0.467358285097252,1,"congruent"
"588e8b95670d6600012bd8dc",3,0.798,"Speed","Fixed",0.0386840473030238,1,"congruent"
"588e8b95670d6600012bd8dc",4,0.965,"Speed","Fixed",0.509671937494399,1,"incongruent"
"588e8b95670d6600012bd8dc",5,0.718,"Speed","Fixed",1.05571228728688,1,"incongruent"
"588e8b95670d6600012bd8dc",6,0.823,"Speed","Fixed",1.49074690341785,1,"incongruent"
"588e8b95670d6600012bd8dc",1,2.52,"Speed","Fixed",-1.4394449325056,1,"congruent"
"588e8b95670d6600012bd8dc",2,1.182,"Speed","Fixed",-0.306916799602671,0,"incongruent"
"588e8b95670d6600012bd8dc",3,1.538,"Speed","Fixed",0.336646806078675,0,"incongruent"
"588e8b95670d6600012bd8dc",4,0.867,"Speed","Fixed",1.14020248132885,1,"congruent"
"588e8b95670d6600012bd8dc",5,1.235,"Speed","Fixed",1.64220007039733,1,"incongruent"
"588e8b95670d6600012bd8dc",1,1.102,"Speed","Fixed",-1.4394449325056,1,"congruent"
"588e8b95670d6600012bd8dc",2,0.868,"Speed","Fixed",-0.944188582323444,1,"incongruent"
"588e8b95670d6600012bd8dc",3,0.835,"Speed","Fixed",-0.44174157732921,1,"congruent"
"588e8b95670d6600012bd8dc",4,0.917,"Speed","Fixed",0.0458747021151059,0,"incongruent"
"588e8b95670d6600012bd8dc",6,1.186,"Speed","Fixed",1.12851766725921,1,"incongruent"
"588e8b95670d6600012bd8dc",1,2.479,"Speed","Fixed",-1.4394449325056,1,"incongruent"
"588e8b95670d6600012bd8dc",2,0.839,"Speed","Fixed",-0.325342852558631,1,"congruent"
"588e8b95670d6600012bd8dc",3,1.235,"Speed","Fixed",0.164071090588705,1,"incongruent"
"588e8b95670d6600012bd8dc",4,2.492,"Speed","Fixed",0.831453740335072,1,"incongruent"
"588e8b95670d6600012bd8dc",5,0.751,"Speed","Fixed",2.06375220875564,1,"congruent"
"588e8b95670d6600012bd8dc",1,2.172,"Speed","Fixed",-1.4394449325056,1,"incongruent"
"588e8b95670d6600012bd8dc",2,0.753,"Speed","Fixed",-0.463313541765456,1,"congruent"
"588e8b95670d6600012bd8dc",3,1.339,"Speed","Fixed",-0.012549368233061,1,"congruent"
"588e8b95670d6600012bd8dc",4,0.961,"Speed","Fixed",0.70157253779184,0,"incongruent"
"588e8b95670d6600012bd8dc",1,1.381,"Speed","Fixed",-1.4394449325056,1,"incongruent"
"588e8b95670d6600012bd8dc",2,2.356,"Speed","Fixed",-0.818801539037763,1,"congruent"
"588e8b95670d6600012bd8dc",3,0.773,"Speed","Fixed",0.352376363480104,1,"congruent"
"588e8b95670d6600012bd8dc",4,0.743,"Speed","Fixed",0.812128855527602,1,"incongruent"
"588e8b95670d6600012bd8dc",5,1.064,"Speed","Fixed",1.25839886980244,1,"incongruent"
"588e8b95670d6600012bd8dc",6,0.732,"Speed","Fixed",1.84893139624468,1,"congruent"
"588e8b95670d6600012bd8dc",1,2.679,"Speed","Fixed",-1.4394449325056,1,"congruent"
"588e8b95670d6600012bd8dc",2,1.897,"Speed","Fixed",-0.235459667407605,1,"incongruent"
"588e8b95670d6600012bd8dc",3,0.647,"Speed","Fixed",0.729436325188658,1,"congruent"
"588e8b95670d6600012bd8dc",4,0.924,"Speed","Fixed",1.13256241059101,1,"incongruent"
"588e8b95670d6600012bd8dc",5,1.017,"Speed","Fixed",1.66017670742753,1,"incongruent"
"588e8b95670d6600012bd8dc",1,1.112,"Speed","Fixed",-1.4394449325056,1,"congruent"
"588e8b95670d6600012bd8dc",2,2.391,"Speed","Fixed",-0.939694423065893,0,"incongruent"
"588e8b95670d6600012bd8dc",1,1.33,"Speed","Fixed",-1.4394449325056,1,"congruent"
"588e8b95670d6600012bd8dc",3,0.729,"Speed","Fixed",-0.351408976252429,1,"congruent"
"588e8b95670d6600012bd8dc",4,0.59,"Speed","Fixed",0.0885692150618432,1,"incongruent"
"588e8b95670d6600012bd8dc",6,0.333,"Speed","Fixed",0.768535510729354,1,"incongruent"
"588e8b95670d6600012bd8dc",6,0.838,"Speed","Fixed",-0.216134782600135,1,"congruent"
"588e8b95670d6600012bd8dc",8,0.432,"Speed","Fixed",0.656630945216327,1,"incongruent"
"588e8b95670d6600012bd8dc",9,0.408,"Speed","Fixed",0.963132606581325,1,"congruent"
"588e8b95670d6600012bd8dc",11,0.399,"Speed","Fixed",1.56849585857348,0,"incongruent"
"588e8b95670d6600012bd8dc",1,1.484,"Speed_Accuracy","Fixed",-1.4394449325056,1,"incongruent"
"588e8b95670d6600012bd8dc",2,1.789,"Speed_Accuracy","Fixed",-0.772511698684985,1,"congruent"
"588e8b95670d6600012bd8dc",3,1.478,"Speed_Accuracy","Fixed",0.143847373929724,1,"incongruent"
"588e8b95670d6600012bd8dc",4,0.681,"Speed_Accuracy","Fixed",0.920438093634588,1,"congruent"
"588e8b95670d6600012bd8dc",5,0.892,"Speed_Accuracy","Fixed",1.33884432051261,1,"congruent"
"588e8b95670d6600012bd8dc",6,0.582,"Speed_Accuracy","Fixed",1.85207730772497,1,"incongruent"
"588e8b95670d6600012bd8dc",7,0.943,"Speed_Accuracy","Fixed",2.22599135795324,1,"incongruent"
"588e8b95670d6600012bd8dc",1,1.11,"Speed_Accuracy","Fixed",-1.4394449325056,1,"congruent"
"588e8b95670d6600012bd8dc",2,0.698,"Speed_Accuracy","Fixed",-0.940593254917403,0,"incongruent"
"588e8b95670d6600012bd8dc",3,0.953,"Speed_Accuracy","Fixed",-0.51454695730154,1,"incongruent"
"588e8b95670d6600012bd8dc",4,0.693,"Speed_Accuracy","Fixed",0.0261004013818802,1,"congruent"
"588e8b95670d6600012bd8dc",5,0.968,"Speed_Accuracy","Fixed",0.449899619368967,1,"congruent"
"588e8b95670d6600012bd8dc",6,0.823,"Speed_Accuracy","Fixed",0.997288216938715,1,"incongruent"
"588e8b95670d6600012bd8dc",7,0.721,"Speed_Accuracy","Fixed",1.47951150527397,1,"congruent"
"588e8b95670d6600012bd8dc",8,0.669,"Speed_Accuracy","Fixed",1.9158943691822,1,"incongruent"
"588e8b95670d6600012bd8dc",1,0.844,"Speed_Accuracy","Fixed",-1.4394449325056,1,"congruent"
"588e8b95670d6600012bd8dc",2,1.136,"Speed_Accuracy","Fixed",-1.06013789116827,1,"incongruent"
"588e8b95670d6600012bd8dc",3,0.517,"Speed_Accuracy","Fixed",-0.437247418071658,1,"incongruent"
"588e8b95670d6600012bd8dc",4,0.99,"Speed_Accuracy","Fixed",-0.092545403017474,1,"congruent"
"588e8b95670d6600012bd8dc",5,0.602,"Speed_Accuracy","Fixed",0.464730344918886,1,"incongruent"
"588e8b95670d6600012bd8dc",6,0.507,"Speed_Accuracy","Fixed",0.847632713662257,1,"congruent"
"588e8b95670d6600012bd8dc",7,0.851,"Speed_Accuracy","Fixed",1.18784056945889,1,"incongruent"
"588e8b95670d6600012bd8dc",8,0.673,"Speed_Accuracy","Fixed",1.68264750371529,1,"incongruent"
"588e8b95670d6600012bd8dc",1,1.456,"Speed_Accuracy","Fixed",-1.4394449325056,1,"congruent"
"588e8b95670d6600012bd8dc",2,0.881,"Speed_Accuracy","Fixed",-0.785095344606128,1,"incongruent"
"588e8b95670d6600012bd8dc",3,0.716,"Speed_Accuracy","Fixed",-0.276805932577077,1,"incongruent"
"588e8b95670d6600012bd8dc",4,0.604,"Speed_Accuracy","Fixed",0.157329851702378,1,"congruent"
"588e8b95670d6600012bd8dc",5,0.454,"Speed_Accuracy","Fixed",0.541131052297258,1,"congruent"
"588e8b95670d6600012bd8dc",6,0.718,"Speed_Accuracy","Fixed",0.857519864028869,1,"incongruent"
"588e8b95670d6600012bd8dc",7,0.539,"Speed_Accuracy","Fixed",1.29255448015983,1,"congruent"
"588e8b95670d6600012bd8dc",8,0.446,"Speed_Accuracy","Fixed",1.64714364558063,1,"incongruent"
"588e8b95670d6600012bd8dc",9,0.64,"Speed_Accuracy","Fixed",1.9599371299062,1,"congruent"
"588e8b95670d6600012bd8dc",1,1.01,"Speed_Accuracy","Fixed",-1.4394449325056,1,"incongruent"
"588e8b95670d6600012bd8dc",2,0.623,"Speed_Accuracy","Fixed",-0.985534847492916,1,"congruent"
"588e8b95670d6600012bd8dc",3,0.614,"Speed_Accuracy","Fixed",-0.593194744308688,1,"congruent"
"588e8b95670d6600012bd8dc",4,1.411,"Speed_Accuracy","Fixed",-0.204899384456256,1,"incongruent"
"588e8b95670d6600012bd8dc",5,0.631,"Speed_Accuracy","Fixed",0.541580468223014,1,"congruent"
"588e8b95670d6600012bd8dc",6,0.848,"Speed_Accuracy","Fixed",0.937515898813283,1,"incongruent"
"588e8b95670d6600012bd8dc",7,1.134,"Speed_Accuracy","Fixed",1.43097458529241,1,"congruent"
"588e8b95670d6600012bd8dc",1,1.225,"Speed_Accuracy","Fixed",-1.4394449325056,1,"congruent"
"588e8b95670d6600012bd8dc",2,0.789,"Speed_Accuracy","Fixed",-0.888910423455563,0,"incongruent"
"588e8b95670d6600012bd8dc",3,0.866,"Speed_Accuracy","Fixed",-0.421967276595984,1,"congruent"
"588e8b95670d6600012bd8dc",4,0.769,"Speed_Accuracy","Fixed",0.0795808965467406,1,"incongruent"
"588e8b95670d6600012bd8dc",5,0.573,"Speed_Accuracy","Fixed",0.537535724891217,1,"congruent"
"588e8b95670d6600012bd8dc",6,0.69,"Speed_Accuracy","Fixed",0.907405031787689,1,"incongruent"
"588e8b95670d6600012bd8dc",7,1.226,"Speed_Accuracy","Fixed",1.32985600199751,1,"incongruent"
"588e8b95670d6600012bd8dc",8,0.599,"Speed_Accuracy","Fixed",1.99319390841208,1,"congruent"
"588e8b95670d6600012bd8dc",9,0.723,"Speed_Accuracy","Fixed",2.37474802937819,1,"congruent"
"588e8b95670d6600012bd8dc",2,1.46,"Speed_Accuracy","Fixed",-1.06463205042582,1,"incongruent"
"588e8b95670d6600012bd8dc",3,0.764,"Speed_Accuracy","Fixed",-0.296130817384548,1,"congruent"
"588e8b95670d6600012bd8dc",4,0.713,"Speed_Accuracy","Fixed",0.159576931331154,1,"incongruent"
"588e8b95670d6600012bd8dc",5,0.727,"Speed_Accuracy","Fixed",0.592364467833343,1,"congruent"
"588e8b95670d6600012bd8dc",6,0.82,"Speed_Accuracy","Fixed",1.0314438272961,1,"incongruent"
"588e8b95670d6600012bd8dc",8,0.91,"Speed_Accuracy","Fixed",1.99049741285755,1,"congruent"
"588e8b95670d6600012bd8dc",1,0.943,"Speed_Accuracy","Fixed",-1.4394449325056,1,"congruent"
"588e8b95670d6600012bd8dc",2,0.616,"Speed_Accuracy","Fixed",-1.01564571451851,1,"incongruent"
"588e8b95670d6600012bd8dc",3,1.388,"Speed_Accuracy","Fixed",-0.626451522814568,1,"congruent"
"588e8b95670d6600012bd8dc",4,0.559,"Speed_Accuracy","Fixed",0.109691763572334,1,"incongruent"
"588e8b95670d6600012bd8dc",5,0.727,"Speed_Accuracy","Fixed",0.473269247508234,1,"congruent"
"588e8b95670d6600012bd8dc",6,0.984,"Speed_Accuracy","Fixed",0.912348606970995,1,"incongruent"
"588e8b95670d6600012bd8dc",7,0.632,"Speed_Accuracy","Fixed",1.46692785935282,1,"incongruent"
"588e8b95670d6600012bd8dc",1,1.245,"Speed_Accuracy","Fixed",-1.4394449325056,1,"incongruent"
"588e8b95670d6600012bd8dc",2,0.724,"Speed_Accuracy","Fixed",-0.879922104940461,1,"congruent"
"588e8b95670d6600012bd8dc",3,0.723,"Speed_Accuracy","Fixed",-0.442190993254965,1,"incongruent"
"588e8b95670d6600012bd8dc",4,0.61,"Speed_Accuracy","Fixed",-0.00490929749522376,1,"congruent"
"588e8b95670d6600012bd8dc",5,0.739,"Speed_Accuracy","Fixed",0.381588398654188,1,"congruent"
"588e8b95670d6600012bd8dc",6,0.813,"Speed_Accuracy","Fixed",0.82606074922601,1,"incongruent"
"588e8b95670d6600012bd8dc",7,0.737,"Speed_Accuracy","Fixed",1.30378987830371,1,"congruent"
"588e8b95670d6600012bd8dc",8,0.817,"Speed_Accuracy","Fixed",1.74736339702403,1,"incongruent"
"588e8b95670d6600012bd8dc",1,1.074,"Speed_Accuracy","Fixed",-1.4394449325056,1,"incongruent"
"588e8b95670d6600012bd8dc",2,0.763,"Speed_Accuracy","Fixed",-0.956772228244588,1,"congruent"
"588e8b95670d6600012bd8dc",3,0.942,"Speed_Accuracy","Fixed",-0.501513895454642,1,"congruent"
"588e8b95670d6600012bd8dc",4,0.554,"Speed_Accuracy","Fixed",0.0341898880454725,1,"incongruent"
"588e8b95670d6600012bd8dc",5,0.697,"Speed_Accuracy","Fixed",0.395520292352597,1,"congruent"
"588e8b95670d6600012bd8dc",6,1.004,"Speed_Accuracy","Fixed",0.821117174042704,1,"incongruent"
"588e8b95670d6600012bd8dc",7,0.756,"Speed_Accuracy","Fixed",1.38468474493964,1,"congruent"
"588e8b95670d6600012bd8dc",1,1.564,"Speed_Accuracy","Fixed",-1.4394449325056,1,"incongruent"
"588e8b95670d6600012bd8dc",2,0.562,"Speed_Accuracy","Fixed",-0.736558424624574,1,"congruent"
"588e8b95670d6600012bd8dc",3,1.057,"Speed_Accuracy","Fixed",-0.371632692911409,1,"congruent"
"588e8b95670d6600012bd8dc",4,0.678,"Speed_Accuracy","Fixed",0.215753922050545,1,"incongruent"
"588e8b95670d6600012bd8dc",5,0.61,"Speed_Accuracy","Fixed",0.632811901151305,1,"congruent"
"588e8b95670d6600012bd8dc",6,0.889,"Speed_Accuracy","Fixed",1.01930959730072,1,"incongruent"
"588e8b95670d6600012bd8dc",7,0.645,"Speed_Accuracy","Fixed",1.53119433673581,1,"incongruent"
"588e8b95670d6600012bd8dc",1,1.037,"Speed_Accuracy","Fixed",-1.4394449325056,1,"incongruent"
"588e8b95670d6600012bd8dc",2,0.901,"Speed_Accuracy","Fixed",-0.973400617497528,1,"congruent"
"588e8b95670d6600012bd8dc",3,0.737,"Speed_Accuracy","Fixed",-0.456122886953374,1,"incongruent"
"588e8b95670d6600012bd8dc",4,0.709,"Speed_Accuracy","Fixed",-0.012549368233061,1,"congruent"
"588e8b95670d6600012bd8dc",5,0.734,"Speed_Accuracy","Fixed",0.418440504566108,1,"incongruent"
"588e8b95670d6600012bd8dc",1,0.998,"Speed_Accuracy","Fixed",-1.4394449325056,1,"incongruent"
"588e8b95670d6600012bd8dc",2,0.636,"Speed_Accuracy","Fixed",-0.990927838601978,1,"congruent"
"588e8b95670d6600012bd8dc",3,0.66,"Speed_Accuracy","Fixed",-0.592745328382933,1,"incongruent"
"588e8b95670d6600012bd8dc",4,0.859,"Speed_Accuracy","Fixed",-0.183776835945765,1,"incongruent"
"588e8b95670d6600012bd8dc",5,0.623,"Speed_Accuracy","Fixed",0.314625425716673,1,"congruent"
"588e8b95670d6600012bd8dc",6,0.751,"Speed_Accuracy","Fixed",0.706965528900901,1,"congruent"
"588e8b95670d6600012bd8dc",7,0.626,"Speed_Accuracy","Fixed",1.15683087058179,1,"incongruent"
"588e8b95670d6600012bd8dc",1,0.937,"Speed_Accuracy","Fixed",-1.4394449325056,1,"congruent"
"588e8b95670d6600012bd8dc",2,0.972,"Speed_Accuracy","Fixed",-1.01834221007304,0,"incongruent"
"588e8b95670d6600012bd8dc",3,0.703,"Speed_Accuracy","Fixed",-0.469155948800272,1,"incongruent"
"588e8b95670d6600012bd8dc",4,0.757,"Speed_Accuracy","Fixed",-0.0408625715556341,1,"congruent"
"588e8b95670d6600012bd8dc",5,0.568,"Speed_Accuracy","Fixed",0.411699265679781,1,"congruent"
"588e8b95670d6600012bd8dc",6,0.711,"Speed_Accuracy","Fixed",0.779321492947477,1,"incongruent"
"588e8b95670d6600012bd8dc",1,1.078,"Speed_Accuracy","Fixed",-1.4394449325056,1,"congruent"
"588e8b95670d6600012bd8dc",2,0.583,"Speed_Accuracy","Fixed",-0.954974564541567,1,"incongruent"
"588e8b95670d6600012bd8dc",3,0.622,"Speed_Accuracy","Fixed",-0.580611098387545,1,"congruent"
"588e8b95670d6600012bd8dc",4,0.648,"Speed_Accuracy","Fixed",-0.188720411129072,1,"incongruent"
"588e8b95670d6600012bd8dc",5,0.56,"Speed_Accuracy","Fixed",0.214855090199035,1,"congruent"
"588e8b95670d6600012bd8dc",6,0.66,"Speed_Accuracy","Fixed",0.578881990060689,1,"incongruent"
"588e8b95670d6600012bd8dc",7,0.587,"Speed_Accuracy","Fixed",0.987850482497857,1,"incongruent"
"588e8b95670d6600012bd8dc",1,0.793,"Speed_Accuracy","Fixed",-1.4394449325056,1,"congruent"
"588e8b95670d6600012bd8dc",2,0.694,"Speed_Accuracy","Fixed",-1.08305810338178,1,"incongruent"
"588e8b95670d6600012bd8dc",3,0.686,"Speed_Accuracy","Fixed",-0.658809469468937,1,"congruent"
"588e8b95670d6600012bd8dc",4,0.578,"Speed_Accuracy","Fixed",-0.238156162962136,1,"incongruent"
"588e8b95670d6600012bd8dc",6,0.945,"Speed_Accuracy","Fixed",0.54742287525783,1,"congruent"
"588e8b95670d6600012bd8dc",1,1.382,"Speed_Accuracy","Fixed",-1.4394449325056,1,"incongruent"
"588e8b95670d6600012bd8dc",2,0.698,"Speed_Accuracy","Fixed",-0.818352123112008,1,"congruent"
"588e8b95670d6600012bd8dc",3,0.608,"Speed_Accuracy","Fixed",-0.392305825496145,1,"congruent"
"588e8b95670d6600012bd8dc",4,0.683,"Speed_Accuracy","Fixed",-0.00670696119824427,1,"incongruent"
"588e8b95670d6600012bd8dc",5,0.67,"Speed_Accuracy","Fixed",0.412598097531291,1,"congruent"
"588e8b95670d6600012bd8dc",6,0.632,"Speed_Accuracy","Fixed",0.82606074922601,1,"incongruent"
"588e8b95670d6600012bd8dc",7,1.248,"Speed_Accuracy","Fixed",1.22244559574203,1,"incongruent"
"588e8b95670d6600012bd8dc",1,0.82,"Speed_Accuracy","Fixed",-1.4394449325056,1,"congruent"
"588e8b95670d6600012bd8dc",2,0.69,"Speed_Accuracy","Fixed",-1.07092387338639,1,"incongruent"
"588e8b95670d6600012bd8dc",3,1.289,"Speed_Accuracy","Fixed",-0.648472903176569,1,"incongruent"
"588e8b95670d6600012bd8dc",4,0.63,"Speed_Accuracy","Fixed",0.0431782065605751,1,"incongruent"
"588e8b95670d6600012bd8dc",5,0.707,"Speed_Accuracy","Fixed",0.438664221225089,1,"congruent"
"588e8b95670d6600012bd8dc",6,0.65,"Speed_Accuracy","Fixed",0.868755262172748,1,"congruent"
"588e8b95670d6600012bd8dc",7,1.123,"Speed_Accuracy","Fixed",1.27322959535236,1,"incongruent"
"588e8b95670d6600012bd8dc",1,0.818,"Speed_Accuracy","Fixed",-1.4394449325056,1,"congruent"
"588e8b95670d6600012bd8dc",2,0.271,"Speed_Accuracy","Fixed",-1.0718227052379,0,"incongruent"
"588e8b95670d6600012bd8dc",4,0.836,"Speed_Accuracy","Fixed",-0.540613080995338,1,"incongruent"
"588e8b95670d6600012bd8dc",5,0.385,"Speed_Accuracy","Fixed",-0.0525473856252675,1,"congruent"
"588e8b95670d6600012bd8dc",6,0.797,"Speed_Accuracy","Fixed",0.23283172722924,1,"incongruent"
"588e8b95670d6600012bd8dc",1,1.228,"Speed_Accuracy","Fixed",-1.4394449325056,1,"congruent"
"588e8b95670d6600012bd8dc",2,0.823,"Speed_Accuracy","Fixed",-0.887562175678298,1,"incongruent"
"588e8b95670d6600012bd8dc",4,0.931,"Speed_Accuracy","Fixed",0.0238533217531045,1,"incongruent"
"588e8b95670d6600012bd8dc",5,0.69,"Speed_Accuracy","Fixed",0.554613530069912,1,"congruent"
"588e8b95670d6600012bd8dc",6,0.823,"Speed_Accuracy","Fixed",0.977064500279734,0,"incongruent"
"588e8b95670d6600012bd8dc",7,0.687,"Speed_Accuracy","Fixed",1.45928778861499,1,"congruent"
"588e8b95670d6600012bd8dc",8,0.842,"Speed_Accuracy","Fixed",1.88039051104754,1,"incongruent"
"5928cbac80a86200013f3732",1,0.923,"Accuracy","Fixed",-1.4394449325056,1,"incongruent"
"5928cbac80a86200013f3732",2,0.711,"Accuracy","Fixed",-1.02463403303361,1,"congruent"
"5928cbac80a86200013f3732",3,0.815,"Accuracy","Fixed",-0.592745328382933,1,"congruent"
"5928cbac80a86200013f3732",4,0.786,"Accuracy","Fixed",-0.11411736745372,1,"incongruent"
"5928cbac80a86200013f3732",5,1.036,"Accuracy","Fixed",0.351477531628594,1,"incongruent"
"5928cbac80a86200013f3732",6,1.696,"Accuracy","Fixed",0.92942641214969,1,"incongruent"
"5928cbac80a86200013f3732",1,1.686,"Accuracy","Fixed",-1.4394449325056,1,"incongruent"
"5928cbac80a86200013f3732",2,1.185,"Accuracy","Fixed",-0.681729681682449,1,"congruent"
"5928cbac80a86200013f3732",3,1.13,"Accuracy","Fixed",-0.0368178282238379,1,"congruent"
"5928cbac80a86200013f3732",4,0.852,"Accuracy","Fixed",0.583376149318241,1,"incongruent"
"5928cbac80a86200013f3732",5,1.081,"Accuracy","Fixed",1.07863249950039,1,"incongruent"
"5928cbac80a86200013f3732",6,0.92,"Accuracy","Fixed",1.67680509668047,1,"incongruent"
"5928cbac80a86200013f3732",7,0.682,"Accuracy","Fixed",2.20262172981397,1,"incongruent"
"5928cbac80a86200013f3732",1,1.002,"Accuracy","Fixed",-1.4394449325056,1,"congruent"
"5928cbac80a86200013f3732",2,0.759,"Accuracy","Fixed",-0.989130174898957,1,"incongruent"
"5928cbac80a86200013f3732",3,0.844,"Accuracy","Fixed",-0.535669505812032,1,"congruent"
"5928cbac80a86200013f3732",4,0.716,"Accuracy","Fixed",-0.04400848303592,1,"incongruent"
"5928cbac80a86200013f3732",5,0.739,"Accuracy","Fixed",0.390127301243535,1,"congruent"
"5928cbac80a86200013f3732",6,0.709,"Accuracy","Fixed",0.834599651815358,1,"incongruent"
"5928cbac80a86200013f3732",1,1.261,"Accuracy","Fixed",-1.4394449325056,1,"incongruent"
"5928cbac80a86200013f3732",2,0.89,"Accuracy","Fixed",-0.872731450128379,1,"congruent"
"5928cbac80a86200013f3732",3,1.149,"Accuracy","Fixed",-0.360397294767531,1,"congruent"
"5928cbac80a86200013f3732",4,1.342,"Accuracy","Fixed",0.268335585363895,1,"incongruent"
"5928cbac80a86200013f3732",5,0.704,"Accuracy","Fixed",0.983805739166061,1,"congruent"
"5928cbac80a86200013f3732",1,1.179,"Accuracy","Fixed",-1.4394449325056,1,"congruent"
"5928cbac80a86200013f3732",2,0.574,"Accuracy","Fixed",-0.909583556040299,1,"incongruent"
"5928cbac80a86200013f3732",3,0.871,"Accuracy","Fixed",-0.539264833218073,1,"congruent"
"5928cbac80a86200013f3732",4,0.876,"Accuracy","Fixed",-0.0354695804465726,1,"incongruent"
"5928cbac80a86200013f3732",5,1.395,"Accuracy","Fixed",0.470572751953703,1,"incongruent"
"5928cbac80a86200013f3732",6,1.243,"Accuracy","Fixed",1.20986194982089,1,"incongruent"
"5928cbac80a86200013f3732",7,0.737,"Accuracy","Fixed",1.8808399269733,1,"incongruent"
"5928cbac80a86200013f3732",1,1.178,"Accuracy","Fixed",-1.4394449325056,1,"incongruent"
"5928cbac80a86200013f3732",2,1.119,"Accuracy","Fixed",-0.910032971966054,1,"congruent"
"5928cbac80a86200013f3732",3,0.59,"Accuracy","Fixed",-0.294782569607282,1,"congruent"
"5928cbac80a86200013f3732",4,0.935,"Accuracy","Fixed",0.0827268080270265,1,"incongruent"
"5928cbac80a86200013f3732",5,1.185,"Accuracy","Fixed",0.615284680046855,1,"congruent"
"5928cbac80a86200013f3732",1,1.35,"Accuracy","Fixed",-1.4394449325056,1,"incongruent"
"5928cbac80a86200013f3732",2,0.598,"Accuracy","Fixed",-0.832733432736172,1,"congruent"
"5928cbac80a86200013f3732",3,0.977,"Accuracy","Fixed",-0.451628727695822,1,"incongruent"
"5928cbac80a86200013f3732",4,0.492,"Accuracy","Fixed",0.0998046132057214,1,"incongruent"
"5928cbac80a86200013f3732",5,0.682,"Accuracy","Fixed",0.433271230116027,1,"congruent"
"5928cbac80a86200013f3732",6,0.868,"Accuracy","Fixed",0.852126872919808,1,"incongruent"
"5928cbac80a86200013f3732",7,0.645,"Accuracy","Fixed",1.35457387791404,1,"congruent"
"5928cbac80a86200013f3732",8,0.797,"Accuracy","Fixed",1.75680113146488,1,"congruent"
"5928cbac80a86200013f3732",9,0.6,"Accuracy","Fixed",2.2273396057305,1,"congruent"
"5928cbac80a86200013f3732",1,1.655,"Accuracy","Fixed",-1.4394449325056,1,"incongruent"
"5928cbac80a86200013f3732",2,1.407,"Accuracy","Fixed",-0.695661575380858,1,"congruent"
"5928cbac80a86200013f3732",3,0.793,"Accuracy","Fixed",0.0490206135953918,1,"congruent"
"5928cbac80a86200013f3732",4,1.331,"Accuracy","Fixed",0.517761424157992,1,"incongruent"
"5928cbac80a86200013f3732",5,0.728,"Accuracy","Fixed",1.22828800277685,1,"congruent"
"5928cbac80a86200013f3732",6,0.703,"Accuracy","Fixed",1.66781677816537,1,"incongruent"
"5928cbac80a86200013f3732",7,1.089,"Accuracy","Fixed",2.09611015541001,1,"congruent"
"5928cbac80a86200013f3732",1,1.322,"Accuracy","Fixed",-1.4394449325056,1,"incongruent"
"5928cbac80a86200013f3732",2,1.493,"Accuracy","Fixed",-0.845317078657316,1,"congruent"
"5928cbac80a86200013f3732",3,1.391,"Accuracy","Fixed",-0.0619851200661252,1,"congruent"
"5928cbac80a86200013f3732",4,1.101,"Accuracy","Fixed",0.675506414098042,1,"incongruent"
"5928cbac80a86200013f3732",1,1.529,"Accuracy","Fixed",-1.4394449325056,1,"congruent"
"5928cbac80a86200013f3732",2,0.921,"Accuracy","Fixed",-0.752287982026004,1,"incongruent"
"5928cbac80a86200013f3732",3,0.98,"Accuracy","Fixed",-0.226021932966747,1,"incongruent"
"5928cbac80a86200013f3732",4,1.991,"Accuracy","Fixed",0.326759655712062,1,"incongruent"
"5928cbac80a86200013f3732",5,1.376,"Accuracy","Fixed",1.33390074532931,1,"congruent"
"5928cbac80a86200013f3732",6,0.97,"Accuracy","Fixed",2.06465104060715,1,"incongruent"
"5928cbac80a86200013f3732",1,1.937,"Accuracy","Fixed",-1.4394449325056,1,"congruent"
"5928cbac80a86200013f3732",2,0.935,"Accuracy","Fixed",-0.568926284317911,1,"incongruent"
"5928cbac80a86200013f3732",3,1.206,"Accuracy","Fixed",-0.0363684122980828,1,"incongruent"
"5928cbac80a86200013f3732",4,1.747,"Accuracy","Fixed",0.617981175601386,1,"incongruent"
"5928cbac80a86200013f3732",5,0.965,"Accuracy","Fixed",1.51546477933438,1,"congruent"
"5928cbac80a86200013f3732",1,1.293,"Accuracy","Fixed",-1.4394449325056,1,"congruent"
"5928cbac80a86200013f3732",2,0.897,"Accuracy","Fixed",-0.858350140504214,1,"incongruent"
"5928cbac80a86200013f3732",3,1.316,"Accuracy","Fixed",-0.342870073663081,1,"congruent"
"5928cbac80a86200013f3732",4,0.908,"Accuracy","Fixed",0.360915266069452,1,"incongruent"
"5928cbac80a86200013f3732",5,0.983,"Accuracy","Fixed",0.881338908093891,1,"congruent"
"5928cbac80a86200013f3732",6,1.639,"Accuracy","Fixed",1.43546874454997,1,"incongruent"
"5928cbac80a86200013f3732",1,0.883,"Accuracy","Fixed",-1.4394449325056,1,"congruent"
"5928cbac80a86200013f3732",2,0.593,"Accuracy","Fixed",-1.04261067006382,1,"incongruent"
"5928cbac80a86200013f3732",3,0.612,"Accuracy","Fixed",-0.663753044652243,1,"incongruent"
"5928cbac80a86200013f3732",4,0.482,"Accuracy","Fixed",-0.276356516651322,1,"incongruent"
"5928cbac80a86200013f3732",5,1.259,"Accuracy","Fixed",0.0526159410014328,1,"congruent"
"5928cbac80a86200013f3732",6,0.848,"Accuracy","Fixed",0.730784572965923,1,"incongruent"
"5928cbac80a86200013f3732",1,1.786,"Accuracy","Fixed",-1.4394449325056,1,"congruent"
"5928cbac80a86200013f3732",2,1.345,"Accuracy","Fixed",-0.636788089106936,1,"incongruent"
"5928cbac80a86200013f3732",3,0.607,"Accuracy","Fixed",0.0800303124724957,1,"congruent"
"5928cbac80a86200013f3732",4,0.855,"Accuracy","Fixed",0.465179760844642,1,"incongruent"
"5928cbac80a86200013f3732",5,0.636,"Accuracy","Fixed",0.96178435880406,1,"incongruent"
"5928cbac80a86200013f3732",6,0.664,"Accuracy","Fixed",1.3599668690231,1,"incongruent"
"5928cbac80a86200013f3732",7,1.393,"Accuracy","Fixed",1.77073302516329,1,"congruent"
"5928cbac80a86200013f3732",2,1.431,"Accuracy","Fixed",0.088119799136088,1,"congruent"
"5928cbac80a86200013f3732",3,1.01,"Accuracy","Fixed",0.843587970330461,1,"incongruent"
"5928cbac80a86200013f3732",4,1.321,"Accuracy","Fixed",1.40985203678192,1,"incongruent"
"5928cbac80a86200013f3732",1,0.931,"Accuracy","Fixed",-1.4394449325056,1,"incongruent"
"5928cbac80a86200013f3732",2,1.133,"Accuracy","Fixed",-1.02103870562757,1,"congruent"
"5928cbac80a86200013f3732",3,2.084,"Accuracy","Fixed",-0.399496480308227,1,"congruent"
"5928cbac80a86200013f3732",4,1.732,"Accuracy","Fixed",0.649440290404245,1,"incongruent"
"5928cbac80a86200013f3732",1,1.631,"Accuracy","Fixed",-1.4394449325056,1,"incongruent"
"5928cbac80a86200013f3732",2,1.435,"Accuracy","Fixed",-0.706447557598981,1,"congruent"
"5928cbac80a86200013f3732",3,0.914,"Accuracy","Fixed",0.0508182772984123,1,"incongruent"
"5928cbac80a86200013f3732",4,0.424,"Accuracy","Fixed",0.573938414877383,1,"incongruent"
"5928cbac80a86200013f3732",5,1.086,"Accuracy","Fixed",0.87684474883634,1,"congruent"
"5928cbac80a86200013f3732",6,1.221,"Accuracy","Fixed",1.47726442564519,1,"incongruent"
"5928cbac80a86200013f3732",8,0.902,"Accuracy","Fixed",2.57114278893318,1,"congruent"
"5928cbac80a86200013f3732",1,2.03,"Accuracy","Fixed",-1.4394449325056,1,"incongruent"
"5928cbac80a86200013f3732",2,1.194,"Accuracy","Fixed",-0.527130603222684,1,"congruent"
"5928cbac80a86200013f3732",3,0.669,"Accuracy","Fixed",0.121825993567723,1,"congruent"
"5928cbac80a86200013f3732",4,0.685,"Accuracy","Fixed",0.534839229336687,1,"incongruent"
"5928cbac80a86200013f3732",5,0.655,"Accuracy","Fixed",0.955043119917733,1,"congruent"
"5928cbac80a86200013f3732",2,1.145,"Accuracy","Fixed",-0.812509716077191,1,"incongruent"
"5928cbac80a86200013f3732",3,0.773,"Accuracy","Fixed",-0.185574499648786,1,"congruent"
"5928cbac80a86200013f3732",4,1.387,"Accuracy","Fixed",0.274177992398712,1,"incongruent"
"5928cbac80a86200013f3732",5,2.214,"Accuracy","Fixed",1.00987186285986,1,"incongruent"
"5928cbac80a86200013f3732",1,1.451,"Accuracy","Fixed",-1.4394449325056,1,"incongruent"
"5928cbac80a86200013f3732",2,1.078,"Accuracy","Fixed",-0.787342424234904,1,"congruent"
"5928cbac80a86200013f3732",3,0.969,"Accuracy","Fixed",-0.190518074832092,1,"incongruent"
"5928cbac80a86200013f3732",4,1.622,"Accuracy","Fixed",0.357319938663411,1,"incongruent"
"5928cbac80a86200013f3732",6,0.869,"Accuracy","Fixed",2.052067394686,1,"congruent"
"5928cbac80a86200013f3732",7,1.136,"Accuracy","Fixed",2.55496381560599,1,"incongruent"
"5928cbac80a86200013f3732",1,1.121,"Speed","Fixed",-1.4394449325056,0,"incongruent"
"5928cbac80a86200013f3732",4,0.438,"Speed","Fixed",-0.294333153681527,1,"incongruent"
"5928cbac80a86200013f3732",7,0.385,"Speed","Fixed",0.604498697828732,1,"congruent"
"5928cbac80a86200013f3732",8,0.391,"Speed","Fixed",0.889877810683239,0,"incongruent"
"5928cbac80a86200013f3732",9,0.463,"Speed","Fixed",1.17795341909228,0,"incongruent"
"5928cbac80a86200013f3732",10,0.332,"Speed","Fixed",1.49838697415568,1,"congruent"
"5928cbac80a86200013f3732",11,0.319,"Speed","Fixed",1.75994704294517,1,"incongruent"
"5928cbac80a86200013f3732",12,0.338,"Speed","Fixed",2.01566470469984,0,"incongruent"
"5928cbac80a86200013f3732",13,0.316,"Speed","Fixed",2.27992126904385,1,"congruent"
"5928cbac80a86200013f3732",6,0.651,"Speed","Fixed",-0.263323454804423,1,"incongruent"
"5928cbac80a86200013f3732",12,0.445,"Speed","Fixed",1.64714364558063,0,"incongruent"
"5928cbac80a86200013f3732",4,0.476,"Speed","Fixed",-0.428708515482311,0,"incongruent"
"5928cbac80a86200013f3732",7,0.648,"Speed","Fixed",0.614385848195345,1,"congruent"
"5928cbac80a86200013f3732",1,0.905,"Speed","Fixed",-1.4394449325056,1,"congruent"
"5928cbac80a86200013f3732",2,0.485,"Speed","Fixed",-1.0327235196972,0,"incongruent"
"5928cbac80a86200013f3732",4,0.4,"Speed","Fixed",-0.332982923296468,1,"incongruent"
"5928cbac80a86200013f3732",5,0.598,"Speed","Fixed",-0.0408625715556341,1,"incongruent"
"5928cbac80a86200013f3732",8,0.423,"Speed","Fixed",0.990097562126633,0,"incongruent"
"5928cbac80a86200013f3732",10,0.596,"Speed","Fixed",1.61253861929749,1,"incongruent"
"5928cbac80a86200013f3732",6,0.259,"Speed","Fixed",-0.1123197037507,1,"incongruent"
"5928cbac80a86200013f3732",9,0.331,"Speed","Fixed",0.516413176380726,1,"incongruent"
"5928cbac80a86200013f3732",7,0.257,"Speed","Fixed",0.866058766618217,0,"incongruent"
"5928cbac80a86200013f3732",9,0.31,"Speed","Fixed",1.3640116123549,0,"incongruent"
"5928cbac80a86200013f3732",2,0.265,"Speed","Fixed",0.330354983118103,1,"incongruent"
"5928cbac80a86200013f3732",3,0.275,"Speed","Fixed",0.561804184881994,0,"incongruent"
"5928cbac80a86200013f3732",1,1.365,"Speed","Fixed",-1.4394449325056,1,"congruent"
"5928cbac80a86200013f3732",5,0.445,"Speed","Fixed",-0.314107454414753,1,"incongruent"
"5928cbac80a86200013f3732",6,0.371,"Speed","Fixed",-0.00176338601493785,1,"incongruent"
"5928cbac80a86200013f3732",1,1.093,"Speed","Fixed",-1.4394449325056,1,"incongruent"
"5928cbac80a86200013f3732",4,0.388,"Speed","Fixed",-0.279502428131608,1,"incongruent"
"5928cbac80a86200013f3732",5,0.515,"Speed","Fixed",0.00722493250016474,1,"congruent"
"5928cbac80a86200013f3732",6,0.365,"Speed","Fixed",0.351028115702839,0,"incongruent"
"5928cbac80a86200013f3732",7,1.238,"Speed","Fixed",0.627418910042243,0,"incongruent"
"5928cbac80a86200013f3732",8,0.3,"Speed","Fixed",1.29614980756588,1,"incongruent"
"5928cbac80a86200013f3732",9,0.358,"Speed","Fixed",1.5433285667312,1,"incongruent"
"5928cbac80a86200013f3732",10,0.3,"Speed","Fixed",1.81657344959032,1,"congruent"
"5928cbac80a86200013f3732",3,1.238,"Speed","Fixed",-0.754085645729024,0,"incongruent"
"5928cbac80a86200013f3732",6,0.43,"Speed","Fixed",0.613936432269589,1,"incongruent"
"5928cbac80a86200013f3732",7,0.412,"Speed","Fixed",0.919539261783077,1,"congruent"
"5928cbac80a86200013f3732",9,0.407,"Speed","Fixed",1.4691749389816,0,"incongruent"
"5928cbac80a86200013f3732",4,0.307,"Speed","Fixed",-0.167148446692825,1,"incongruent"
"5928cbac80a86200013f3732",5,0.325,"Speed","Fixed",0.0831762239527816,1,"congruent"
"5928cbac80a86200013f3732",10,0.465,"Speed","Fixed",1.52939667303279,1,"congruent"
"5928cbac80a86200013f3732",8,0.737,"Speed","Fixed",1.73837507850892,1,"incongruent"
"5928cbac80a86200013f3732",1,0.91,"Speed","Fixed",-1.4394449325056,1,"incongruent"
"5928cbac80a86200013f3732",2,0.562,"Speed","Fixed",-1.03047644006843,1,"congruent"
"5928cbac80a86200013f3732",3,0.848,"Speed","Fixed",-0.665550708355264,1,"congruent"
"5928cbac80a86200013f3732",4,0.815,"Speed","Fixed",-0.172092021876132,1,"incongruent"
"5928cbac80a86200013f3732",5,1.048,"Speed","Fixed",0.306535939053081,1,"incongruent"
"5928cbac80a86200013f3732",6,0.81,"Speed","Fixed",0.889877810683239,1,"congruent"
"5928cbac80a86200013f3732",2,0.306,"Speed","Fixed",-1.15181874002231,1,"incongruent"
"5928cbac80a86200013f3732",9,0.711,"Speed","Fixed",0.647642626701224,1,"incongruent"
"5928cbac80a86200013f3732",1,1.073,"Speed","Fixed",-1.4394449325056,1,"congruent"
"5928cbac80a86200013f3732",8,0.457,"Speed","Fixed",1.45074888602564,1,"incongruent"
"5928cbac80a86200013f3732",3,0.299,"Speed","Fixed",-0.775657610165271,1,"congruent"
"5928cbac80a86200013f3732",4,0.364,"Speed","Fixed",-0.528928266925705,0,"incongruent"
"5928cbac80a86200013f3732",7,0.653,"Speed","Fixed",0.272380328695691,1,"congruent"
"5928cbac80a86200013f3732",2,0.456,"Speed","Fixed",-0.622406779482772,1,"incongruent"
"5928cbac80a86200013f3732",4,1.833,"Speed","Fixed",0.0544136047044533,1,"incongruent"
"5928cbac80a86200013f3732",1,0.735,"Speed","Fixed",-1.4394449325056,1,"congruent"
"5928cbac80a86200013f3732",4,0.535,"Speed","Fixed",-0.198158145569929,1,"incongruent"
"5928cbac80a86200013f3732",7,0.788,"Speed","Fixed",1.31412644459608,0,"incongruent"
"5928cbac80a86200013f3732",8,0.406,"Speed","Fixed",1.78062017552991,1,"congruent"
"5928cbac80a86200013f3732",3,0.896,"Speed","Fixed",-0.719930035371635,0,"incongruent"
"5928cbac80a86200013f3732",5,0.398,"Speed","Fixed",-0.315006286266263,1,"congruent"
"5928cbac80a86200013f3732",1,1.326,"Speed_Accuracy","Fixed",-1.4394449325056,1,"congruent"
"5928cbac80a86200013f3732",2,0.679,"Speed_Accuracy","Fixed",-0.843519414954295,1,"incongruent"
"5928cbac80a86200013f3732",3,1.192,"Speed_Accuracy","Fixed",-0.42601201992778,1,"congruent"
"5928cbac80a86200013f3732",4,0.447,"Speed_Accuracy","Fixed",0.222045745011117,1,"incongruent"
"5928cbac80a86200013f3732",5,0.78,"Speed_Accuracy","Fixed",0.535288645262442,1,"congruent"
"5928cbac80a86200013f3732",7,0.759,"Speed_Accuracy","Fixed",1.29075681645681,1,"congruent"
"5928cbac80a86200013f3732",8,0.595,"Speed_Accuracy","Fixed",1.74421748554374,1,"incongruent"
"5928cbac80a86200013f3732",1,1.305,"Speed_Accuracy","Fixed",-1.4394449325056,1,"congruent"
"5928cbac80a86200013f3732",2,0.973,"Speed_Accuracy","Fixed",-0.852957149395153,1,"incongruent"
"5928cbac80a86200013f3732",3,0.389,"Speed_Accuracy","Fixed",-0.30332147219663,1,"incongruent"
"5928cbac80a86200013f3732",4,1.2,"Speed_Accuracy","Fixed",-0.016144695639102,1,"incongruent"
"5928cbac80a86200013f3732",5,1.113,"Speed_Accuracy","Fixed",0.635508396705836,1,"congruent"
"5928cbac80a86200013f3732",6,0.617,"Speed_Accuracy","Fixed",1.24806230351008,1,"incongruent"
"5928cbac80a86200013f3732",7,1.176,"Speed_Accuracy","Fixed",1.63770591113977,1,"incongruent"
"5928cbac80a86200013f3732",8,0.933,"Speed_Accuracy","Fixed",2.27857302126659,1,"congruent"
"5928cbac80a86200013f3732",1,0.815,"Speed_Accuracy","Fixed",-1.4394449325056,1,"incongruent"
"5928cbac80a86200013f3732",2,0.943,"Speed_Accuracy","Fixed",-1.07317095301517,1,"congruent"
"5928cbac80a86200013f3732",3,0.784,"Speed_Accuracy","Fixed",-0.537017753589297,1,"incongruent"
"5928cbac80a86200013f3732",4,0.962,"Speed_Accuracy","Fixed",-0.0723216863584932,1,"incongruent"
"5928cbac80a86200013f3732",5,0.562,"Speed_Accuracy","Fixed",0.472370415656724,1,"congruent"
"5928cbac80a86200013f3732",6,0.615,"Speed_Accuracy","Fixed",0.837296147369889,1,"incongruent"
"5928cbac80a86200013f3732",1,2.35,"Speed_Accuracy","Fixed",-1.4394449325056,1,"congruent"
"5928cbac80a86200013f3732",2,0.831,"Speed_Accuracy","Fixed",-0.383317506981043,1,"incongruent"
"5928cbac80a86200013f3732",3,0.862,"Speed_Accuracy","Fixed",0.102501108760252,1,"incongruent"
"5928cbac80a86200013f3732",4,0.569,"Speed_Accuracy","Fixed",0.602251618199956,1,"congruent"
"5928cbac80a86200013f3732",5,1.978,"Speed_Accuracy","Fixed",0.970323261393407,1,"incongruent"
"5928cbac80a86200013f3732",6,0.476,"Speed_Accuracy","Fixed",1.97162194397584,1,"incongruent"
"5928cbac80a86200013f3732",7,0.765,"Speed_Accuracy","Fixed",2.29789790607406,1,"incongruent"
"5928cbac80a86200013f3732",3,1.278,"Speed_Accuracy","Fixed",-0.134790500038456,1,"congruent"
"5928cbac80a86200013f3732",4,0.612,"Speed_Accuracy","Fixed",0.551917034515382,1,"incongruent"
"5928cbac80a86200013f3732",5,1.328,"Speed_Accuracy","Fixed",0.939313562516303,1,"congruent"
"5928cbac80a86200013f3732",1,1.639,"Speed_Accuracy","Fixed",-1.4394449325056,1,"incongruent"
"5928cbac80a86200013f3732",2,0.375,"Speed_Accuracy","Fixed",-0.70285223019294,1,"congruent"
"5928cbac80a86200013f3732",3,1.243,"Speed_Accuracy","Fixed",-0.421967276595984,1,"congruent"
"5928cbac80a86200013f3732",4,0.76,"Speed_Accuracy","Fixed",0.249010700556424,1,"incongruent"
"5928cbac80a86200013f3732",5,1.476,"Speed_Accuracy","Fixed",0.702920785569105,1,"congruent"
"5928cbac80a86200013f3732",6,2.068,"Speed_Accuracy","Fixed",1.47861267342246,0,"incongruent"
"5928cbac80a86200013f3732",7,1.141,"Speed_Accuracy","Fixed",2.52035878932285,1,"incongruent"
"5928cbac80a86200013f3732",1,0.825,"Speed_Accuracy","Fixed",-1.4394449325056,1,"incongruent"
"5928cbac80a86200013f3732",2,0.943,"Speed_Accuracy","Fixed",-1.06867679375761,1,"congruent"
"5928cbac80a86200013f3732",3,0.924,"Speed_Accuracy","Fixed",-0.532523594331746,1,"incongruent"
"5928cbac80a86200013f3732",4,1.4,"Speed_Accuracy","Fixed",-0.00490929749522376,1,"congruent"
"5928cbac80a86200013f3732",5,0.759,"Speed_Accuracy","Fixed",0.73662698000074,1,"congruent"
"5928cbac80a86200013f3732",6,1.66,"Speed_Accuracy","Fixed",1.19008764908767,1,"incongruent"
"5928cbac80a86200013f3732",1,2.064,"Speed_Accuracy","Fixed",-1.4394449325056,1,"incongruent"
"5928cbac80a86200013f3732",2,0.671,"Speed_Accuracy","Fixed",-0.51185046174701,1,"congruent"
"5928cbac80a86200013f3732",3,0.81,"Speed_Accuracy","Fixed",-0.0979383941265355,0,"incongruent"
"5928cbac80a86200013f3732",4,1.562,"Speed_Accuracy","Fixed",0.378442487173902,1,"congruent"
"5928cbac80a86200013f3732",5,0.82,"Speed_Accuracy","Fixed",1.1927841446422,1,"congruent"
"5928cbac80a86200013f3732",1,1.403,"Speed_Accuracy","Fixed",-1.4394449325056,1,"incongruent"
"5928cbac80a86200013f3732",2,1.364,"Speed_Accuracy","Fixed",-0.80891438867115,1,"congruent"
"5928cbac80a86200013f3732",3,0.597,"Speed_Accuracy","Fixed",-0.0835570845023714,1,"incongruent"
"5928cbac80a86200013f3732",4,1.254,"Speed_Accuracy","Fixed",0.297098204612223,1,"incongruent"
"5928cbac80a86200013f3732",5,1.23,"Speed_Accuracy","Fixed",0.973019756947938,1,"congruent"
"5928cbac80a86200013f3732",6,0.972,"Speed_Accuracy","Fixed",1.63815532706553,1,"incongruent"
"5928cbac80a86200013f3732",1,0.902,"Speed_Accuracy","Fixed",-1.4394449325056,1,"incongruent"
"5928cbac80a86200013f3732",2,0.836,"Speed_Accuracy","Fixed",-1.03407176747447,1,"congruent"
"5928cbac80a86200013f3732",3,0.806,"Speed_Accuracy","Fixed",-0.5460060721044,1,"congruent"
"5928cbac80a86200013f3732",4,0.705,"Speed_Accuracy","Fixed",-0.0714228545069829,1,"incongruent"
"5928cbac80a86200013f3732",5,1.014,"Speed_Accuracy","Fixed",0.357769354589166,1,"congruent"
"5928cbac80a86200013f3732",6,0.601,"Speed_Accuracy","Fixed",0.925831084743649,1,"incongruent"
"5928cbac80a86200013f3732",7,1.07,"Speed_Accuracy","Fixed",1.30828403756126,1,"incongruent"
"5928cbac80a86200013f3732",1,1.503,"Speed_Accuracy","Fixed",-1.4394449325056,1,"incongruent"
"5928cbac80a86200013f3732",2,1.16,"Speed_Accuracy","Fixed",-0.763972796095637,1,"congruent"
"5928cbac80a86200013f3732",3,0.707,"Speed_Accuracy","Fixed",-0.130296340780905,1,"congruent"
"5928cbac80a86200013f3732",4,1.875,"Speed_Accuracy","Fixed",0.299794700166754,1,"incongruent"
"5928cbac80a86200013f3732",1,2.041,"Speed_Accuracy","Fixed",-1.4394449325056,1,"congruent"
"5928cbac80a86200013f3732",2,1.362,"Speed_Accuracy","Fixed",-0.522187028039378,1,"incongruent"
"5928cbac80a86200013f3732",3,0.732,"Speed_Accuracy","Fixed",0.202271444277891,1,"incongruent"
"5928cbac80a86200013f3732",4,1.386,"Speed_Accuracy","Fixed",0.643597883369428,1,"congruent"
"5928cbac80a86200013f3732",2,1.02,"Speed_Accuracy","Fixed",-1.42506362288143,1,"incongruent"
"5928cbac80a86200013f3732",5,0.68,"Speed_Accuracy","Fixed",-0.0669286952494316,1,"congruent"
"5928cbac80a86200013f3732",7,0.994,"Speed_Accuracy","Fixed",0.760446024065762,1,"incongruent"
"5928cbac80a86200013f3732",9,0.772,"Speed_Accuracy","Fixed",1.61478569892626,1,"congruent"
"5928cbac80a86200013f3732",10,0.74,"Speed_Accuracy","Fixed",2.074088775048,0,"incongruent"
"5928cbac80a86200013f3732",1,1.69,"Speed_Accuracy","Fixed",-1.4394449325056,1,"congruent"
"5928cbac80a86200013f3732",2,1.529,"Speed_Accuracy","Fixed",-0.679932017979428,1,"incongruent"
"5928cbac80a86200013f3732",3,0.57,"Speed_Accuracy","Fixed",0.119578913938947,1,"congruent"
"5928cbac80a86200013f3732",4,0.971,"Speed_Accuracy","Fixed",0.488099973058153,1,"incongruent"
"5928cbac80a86200013f3732",5,0.657,"Speed_Accuracy","Fixed",1.03683681840517,1,"incongruent"
"5928cbac80a86200013f3732",6,0.621,"Speed_Accuracy","Fixed",1.44445706306507,1,"incongruent"
"5928cbac80a86200013f3732",2,2.251,"Speed_Accuracy","Fixed",-0.860147804207235,1,"congruent"
"5928cbac80a86200013f3732",3,1.188,"Speed_Accuracy","Fixed",0.263841426106344,1,"congruent"
"5928cbac80a86200013f3732",4,1.174,"Speed_Accuracy","Fixed",0.91010152734222,1,"incongruent"
"5928cbac80a86200013f3732",1,1.185,"Speed_Accuracy","Fixed",-1.4394449325056,1,"incongruent"
"5928cbac80a86200013f3732",4,1.293,"Speed_Accuracy","Fixed",-0.181080340391234,1,"incongruent"
"5928cbac80a86200013f3732",2,0.916,"Speed_Accuracy","Fixed",-0.553646142842237,1,"incongruent"
"5928cbac80a86200013f3732",3,0.795,"Speed_Accuracy","Fixed",-0.0296271734117559,1,"congruent"
"5928cbac80a86200013f3732",4,1.206,"Speed_Accuracy","Fixed",0.440012469002354,1,"incongruent"
"5928cbac80a86200013f3732",6,1.09,"Speed_Accuracy","Fixed",2.03049543024976,0,"incongruent"
"5928cbac80a86200013f3732",1,1.246,"Speed_Accuracy","Fixed",-1.4394449325056,1,"incongruent"
"5928cbac80a86200013f3732",3,0.821,"Speed_Accuracy","Fixed",-0.436798002145903,1,"congruent"
"5928cbac80a86200013f3732",5,0.586,"Speed_Accuracy","Fixed",0.726739829634127,0,"incongruent"
"5928cbac80a86200013f3732",6,0.999,"Speed_Accuracy","Fixed",1.10245154356541,1,"congruent"
"5928cbac80a86200013f3732",8,1.29,"Speed_Accuracy","Fixed",2.16801670353083,1,"incongruent"
"5928cbac80a86200013f3732",2,0.651,"Speed_Accuracy","Fixed",0.16452050651446,1,"incongruent"
"5928cbac80a86200013f3732",3,0.626,"Speed_Accuracy","Fixed",0.569444255619832,1,"congruent"
"5928cbac80a86200013f3732",1,1.031,"Speed_Accuracy","Fixed",-1.4394449325056,1,"congruent"
"5928cbac80a86200013f3732",2,1.32,"Speed_Accuracy","Fixed",-0.976097113052058,0,"incongruent"
"5928cbac80a86200013f3732",5,1.26,"Speed_Accuracy","Fixed",0.857519864028869,1,"congruent"
"5928cbac80a86200013f3732",1,0.918,"Speed_Accuracy","Varying",-1.4394449325056,1,"incongruent"
"5928cbac80a86200013f3732",3,1.258,"Speed_Accuracy","Varying",-0.553646142842237,1,"congruent"
"5928cbac80a86200013f3732",4,0.838,"Speed_Accuracy","Varying",0.124073073196498,0,"incongruent"
"5928cbac80a86200013f3732",5,0.718,"Speed_Accuracy","Varying",0.613037600418079,1,"congruent"
"5928cbac80a86200013f3732",6,1.395,"Speed_Accuracy","Varying",1.04807221654904,1,"incongruent"
"5928cbac80a86200013f3732",2,0.92,"Speed_Accuracy","Varying",-0.87902327308895,1,"incongruent"
"5928cbac80a86200013f3732",5,1.216,"Speed_Accuracy","Varying",0.594162131536364,1,"incongruent"
"5928cbac80a86200013f3732",6,0.616,"Speed_Accuracy","Varying",1.25300587869338,1,"congruent"
"5928cbac80a86200013f3732",3,0.897,"Accuracy","Varying",0.179351232064379,1,"incongruent"
"5928cbac80a86200013f3732",5,0.616,"Accuracy","Varying",1.13211299466525,1,"congruent"
"5928cbac80a86200013f3732",3,1.319,"Speed_Accuracy","Varying",-0.0408625715556341,1,"congruent"
"5928cbac80a86200013f3732",5,1.125,"Speed_Accuracy","Varying",1.10379979134268,1,"congruent"
"5928cbac80a86200013f3732",6,0.632,"Speed_Accuracy","Varying",1.72174668925598,0,"incongruent"
"5928cbac80a86200013f3732",1,1.636,"Accuracy","Varying",-1.4394449325056,1,"incongruent"
"5928cbac80a86200013f3732",2,0.552,"Accuracy","Varying",-0.704200477970205,1,"congruent"
"5928cbac80a86200013f3732",4,1.191,"Accuracy","Varying",0.184744223173441,1,"incongruent"
"5928cbac80a86200013f3732",6,1.195,"Accuracy","Varying",1.42872750566364,1,"congruent"
"5928cbac80a86200013f3732",7,1.494,"Accuracy","Varying",2.0781335183798,0,"incongruent"
"5928cbac80a86200013f3732",1,1.224,"Accuracy","Varying",-1.4394449325056,1,"congruent"
"5928cbac80a86200013f3732",2,0.738,"Accuracy","Varying",-0.889359839381318,0,"incongruent"
"5928cbac80a86200013f3732",3,1.11,"Accuracy","Varying",-0.445336904735251,1,"congruent"
"5928cbac80a86200013f3732",4,0.564,"Accuracy","Varying",0.165868754291725,1,"incongruent"
"5928cbac80a86200013f3732",3,0.955,"Speed_Accuracy","Varying",-0.576116939129993,1,"incongruent"
"5928cbac80a86200013f3732",4,1.103,"Speed_Accuracy","Varying",-0.0345707485950623,1,"incongruent"
"5928cbac80a86200013f3732",1,0.766,"Speed","Varying",-1.4394449325056,1,"incongruent"
"5928cbac80a86200013f3732",6,0.338,"Speed","Varying",-0.162204871509519,1,"incongruent"
"5928cbac80a86200013f3732",7,0.278,"Speed","Varying",0.102051692834497,1,"incongruent"
"5928cbac80a86200013f3732",1,1.333,"Accuracy","Varying",-1.4394449325056,1,"incongruent"
"5928cbac80a86200013f3732",2,1.475,"Accuracy","Varying",-0.840373503474009,1,"congruent"
"5928cbac80a86200013f3732",3,1.233,"Accuracy","Varying",-0.0651310315464111,1,"congruent"
