"subj_idx","trialNum","rt","intervalType","Switch","scaledRunningTime","response","congruency"
"5a89cc2c000dab00018cbd38",2,0.947,"Accuracy","Switch",1.76914385399748,1,"incongruent"
"5a89cc2c000dab00018cbd38",3,1.023,"Accuracy","Switch",2.29863024885056,1,"incongruent"
"5a89cc2c000dab00018cbd38",1,1.049,"Accuracy","Repeat",-1.45687475725022,1,"congruent"
"5a89cc2c000dab00018cbd38",2,1.033,"Accuracy","Repeat",-0.992855351902787,0,"incongruent"
"5a89cc2c000dab00018cbd38",3,0.939,"Accuracy","Repeat",-0.425327328012646,1,"congruent"
"5a89cc2c000dab00018cbd38",4,0.792,"Accuracy","Repeat",0.100620310650939,1,"incongruent"
"5a89cc2c000dab00018cbd38",5,1.032,"Accuracy","Repeat",0.561543304332566,1,"incongruent"
"5a89cc2c000dab00018cbd38",6,0.984,"Accuracy","Repeat",1.12862898369902,1,"congruent"
"5a89cc2c000dab00018cbd38",2,0.329,"Speed","Switch",-1.11538478496403,1,"incongruent"
"5a89cc2c000dab00018cbd38",3,0.259,"Speed","Switch",-0.859267305749379,0,"incongruent"
"5a89cc2c000dab00018cbd38",5,0.254,"Speed","Switch",-0.395690244925631,1,"incongruent"
"5a89cc2c000dab00018cbd38",6,0.273,"Speed","Switch",-0.172748604987493,0,"incongruent"
"5a89cc2c000dab00018cbd38",8,0.287,"Speed","Switch",0.302771757975798,1,"congruent"
"5a89cc2c000dab00018cbd38",1,2.331,"Accuracy","Switch",-1.45687475725022,1,"incongruent"
"5a89cc2c000dab00018cbd38",2,0.819,"Accuracy","Switch",-0.425769672536332,1,"congruent"
"5a89cc2c000dab00018cbd38",3,0.622,"Accuracy","Switch",0.0470966232848379,1,"congruent"
"5a89cc2c000dab00018cbd38",4,0.945,"Accuracy","Switch",0.432821047939712,1,"incongruent"
"5a89cc2c000dab00018cbd38",5,0.844,"Accuracy","Switch",0.961422753745417,1,"incongruent"
"5a89cc2c000dab00018cbd38",6,0.875,"Accuracy","Switch",1.44534766265876,1,"congruent"
"5a89cc2c000dab00018cbd38",7,0.706,"Accuracy","Switch",1.94298525180639,1,"congruent"
"5a89cc2c000dab00018cbd38",8,0.99,"Accuracy","Switch",2.36586661645095,1,"incongruent"
"5a89cc2c000dab00018cbd38",1,1.737,"Accuracy","Repeat",-1.45687475725022,1,"congruent"
"5a89cc2c000dab00018cbd38",2,1.848,"Accuracy","Repeat",-0.688522319606281,1,"incongruent"
"5a89cc2c000dab00018cbd38",3,0.622,"Accuracy","Repeat",0.239516491088588,1,"congruent"
"5a89cc2c000dab00018cbd38",4,0.82,"Accuracy","Repeat",0.625240915743462,1,"incongruent"
"5a89cc2c000dab00018cbd38",3,0.27,"Speed","Switch",-0.950832622152543,1,"congruent"
"5a89cc2c000dab00018cbd38",7,0.257,"Speed","Switch",-0.0626048185894841,1,"incongruent"
"5a89cc2c000dab00018cbd38",9,0.254,"Speed","Switch",0.388144251047347,0,"incongruent"
"5a89cc2c000dab00018cbd38",10,0.271,"Speed","Switch",0.611085890985485,1,"incongruent"
"5a89cc2c000dab00018cbd38",2,0.271,"Speed","Repeat",-1.1162694740114,0,"incongruent"
"5a89cc2c000dab00018cbd38",3,0.286,"Speed","Repeat",-0.885807977170586,1,"incongruent"
"5a89cc2c000dab00018cbd38",9,0.269,"Speed","Repeat",0.489883491495307,1,"congruent"
"5a89cc2c000dab00018cbd38",14,0.286,"Speed","Repeat",1.58689791023853,0,"incongruent"
"5a89cc2c000dab00018cbd38",2,0.293,"Speed","Repeat",-1.19367976565659,1,"incongruent"
"5a89cc2c000dab00018cbd38",4,0.256,"Speed","Repeat",-0.753104620064551,1,"incongruent"
"5a89cc2c000dab00018cbd38",5,0.285,"Speed","Repeat",-0.529278291079039,0,"incongruent"
"5a89cc2c000dab00018cbd38",1,1.578,"Accuracy","Switch",-1.45687475725022,1,"congruent"
"5a89cc2c000dab00018cbd38",2,1.19,"Accuracy","Switch",-0.758855098872479,1,"incongruent"
"5a89cc2c000dab00018cbd38",3,1.442,"Accuracy","Switch",-0.121878984763513,1,"incongruent"
"5a89cc2c000dab00018cbd38",4,0.929,"Accuracy","Switch",0.626567949314523,1,"incongruent"
"5a89cc2c000dab00018cbd38",5,1.27,"Accuracy","Switch",1.14809214274124,1,"congruent"
"5a89cc2c000dab00018cbd38",6,1.217,"Accuracy","Switch",1.82045581874515,1,"incongruent"
"5a89cc2c000dab00018cbd38",7,0.882,"Accuracy","Switch",2.46937523499366,1,"congruent"
"5a89cc2c000dab00018cbd38",1,1.088,"Accuracy","Repeat",-1.45687475725022,1,"incongruent"
"5a89cc2c000dab00018cbd38",2,0.535,"Accuracy","Repeat",-0.975603915479003,1,"congruent"
"5a89cc2c000dab00018cbd38",3,0.774,"Accuracy","Repeat",-0.628363464384879,1,"incongruent"
"5a89cc2c000dab00018cbd38",4,1.206,"Accuracy","Repeat",-0.175402672129614,1,"congruent"
"5a89cc2c000dab00018cbd38",5,1.201,"Accuracy","Repeat",0.468650954358341,1,"congruent"
"5a89cc2c000dab00018cbd38",6,1.301,"Accuracy","Repeat",1.11049285822786,1,"incongruent"
"5a89cc2c000dab00018cbd38",7,0.871,"Accuracy","Repeat",1.79656921446606,1,"congruent"
"5a89cc2c000dab00018cbd38",1,0.574,"Speed","Switch",-1.45687475725022,1,"incongruent"
"5a89cc2c000dab00018cbd38",4,0.475,"Speed","Switch",-0.564665852973982,1,"incongruent"
"5a89cc2c000dab00018cbd38",6,0.444,"Speed","Switch",0.024537052576812,1,"incongruent"
"5a89cc2c000dab00018cbd38",9,0.428,"Speed","Switch",0.936651460418957,1,"congruent"
"5a89cc2c000dab00018cbd38",13,0.395,"Speed","Switch",1.94519697442482,1,"incongruent"
"5a89cc2c000dab00018cbd38",1,1.443,"Accuracy","Switch",-1.45687475725022,1,"incongruent"
"5a89cc2c000dab00018cbd38",2,0.899,"Accuracy","Switch",-0.818571609570195,1,"congruent"
"5a89cc2c000dab00018cbd38",3,0.492,"Accuracy","Switch",-0.310317751854082,1,"congruent"
"5a89cc2c000dab00018cbd38",4,1.257,"Accuracy","Switch",0.0179018847215103,1,"incongruent"
"5a89cc2c000dab00018cbd38",5,1.12,"Accuracy","Switch",0.684515081917491,1,"congruent"
"5a89cc2c000dab00018cbd38",6,1.042,"Accuracy","Switch",1.29052707936838,1,"incongruent"
"5a89cc2c000dab00018cbd38",3,0.31,"Speed","Switch",-0.903944102641744,0,"incongruent"
"5a89cc2c000dab00018cbd38",4,0.368,"Speed","Switch",-0.656231169377146,1,"incongruent"
"5a89cc2c000dab00018cbd38",6,0.336,"Speed","Switch",-0.113032094289777,0,"incongruent"
"5a89cc2c000dab00018cbd38",8,0.392,"Speed","Switch",0.446976072697689,1,"congruent"
"5a89cc2c000dab00018cbd38",3,0.343,"Speed","Repeat",-0.834938356946606,1,"congruent"
"5a89cc2c000dab00018cbd38",5,0.355,"Speed","Repeat",-0.300143827809286,1,"incongruent"
"5a89cc2c000dab00018cbd38",8,0.279,"Speed","Repeat",0.507134927919092,1,"incongruent"
"5a89cc2c000dab00018cbd38",10,0.409,"Speed","Repeat",0.938863183037391,0,"incongruent"
"5a89cc2c000dab00018cbd38",12,0.342,"Speed","Repeat",1.50992996311703,1,"incongruent"
"5a89cc2c000dab00018cbd38",1,1.688,"Accuracy","Switch",-1.45687475725022,1,"congruent"
"5a89cc2c000dab00018cbd38",2,0.902,"Accuracy","Switch",-0.710197201266933,0,"incongruent"
"5a89cc2c000dab00018cbd38",3,0.43,"Accuracy","Switch",-0.20061630997976,1,"incongruent"
"5a89cc2c000dab00018cbd38",4,1.058,"Accuracy","Switch",0.100177966127252,0,"incongruent"
"5a89cc2c000dab00018cbd38",5,0.781,"Accuracy","Switch",0.678764603109563,1,"congruent"
"5a89cc2c000dab00018cbd38",6,0.595,"Accuracy","Switch",1.13482180703064,1,"incongruent"
"5a89cc2c000dab00018cbd38",7,1.022,"Accuracy","Switch",1.50860292954597,1,"incongruent"
"5a89cc2c000dab00018cbd38",1,0.609,"Speed","Switch",-1.45687475725022,1,"congruent"
"5a89cc2c000dab00018cbd38",4,0.385,"Speed","Switch",-0.730545049356525,0,"incongruent"
"5a89cc2c000dab00018cbd38",2,0.754,"Accuracy","Switch",0.239074146564901,1,"congruent"
"5a89cc2c000dab00018cbd38",3,0.854,"Accuracy","Switch",0.683188048346431,1,"incongruent"
"5a89cc2c000dab00018cbd38",4,0.889,"Accuracy","Switch",1.17153640249664,1,"incongruent"
"5a89cc2c000dab00018cbd38",5,1.24,"Accuracy","Switch",1.67536681497588,1,"congruent"
"5a89cc2c000dab00018cbd38",6,0.911,"Accuracy","Switch",2.33446015526919,1,"incongruent"
"5a89cc2c000dab00018cbd38",3,0.28,"Speed","Switch",-0.830957256233425,0,"incongruent"
"5a89cc2c000dab00018cbd38",5,0.778,"Speed","Switch",-0.296605071619792,1,"incongruent"
"5a89cc2c000dab00018cbd38",8,0.414,"Speed","Switch",0.866761025676446,0,"incongruent"
"5a89cc2c000dab00018cbd38",4,0.258,"Speed","Repeat",-0.771240745535709,0,"incongruent"
"5a89cc2c000dab00018cbd38",6,0.297,"Speed","Repeat",-0.272718467340706,1,"congruent"
"5a89cc2c000dab00018cbd38",2,1.388,"Accuracy","Switch",-0.956583100960471,1,"congruent"
"5a89cc2c000dab00018cbd38",3,2.506,"Accuracy","Switch",-0.232022771161522,1,"congruent"
"5a89cc2c000dab00018cbd38",4,1.426,"Accuracy","Switch",0.98707873611925,1,"incongruent"
"5a89cc2c000dab00018cbd38",5,1.114,"Accuracy","Switch",1.7284481578183,1,"congruent"
"5a89cc2c000dab00018cbd38",1,1.073,"Accuracy","Repeat",-1.45687475725022,1,"incongruent"
"5a89cc2c000dab00018cbd38",2,0.711,"Accuracy","Repeat",-0.982239083334305,1,"congruent"
"5a89cc2c000dab00018cbd38",3,0.789,"Accuracy","Repeat",-0.557145996071307,1,"congruent"
"5a89cc2c000dab00018cbd38",4,0.707,"Accuracy","Repeat",-0.0975500359607399,1,"incongruent"
"5a89cc2c000dab00018cbd38",1,1.391,"Accuracy","Repeat",-1.45687475725022,1,"incongruent"
"5a89cc2c000dab00018cbd38",2,0.837,"Accuracy","Repeat",-0.841573524801908,1,"congruent"
"5a89cc2c000dab00018cbd38",3,0.533,"Accuracy","Repeat",-0.360745027554375,1,"congruent"
"5a89cc2c000dab00018cbd38",4,1.011,"Accuracy","Repeat",-0.0143892655076248,1,"incongruent"
"5a89cc2c000dab00018cbd38",5,0.599,"Accuracy","Repeat",0.543407178861408,1,"congruent"
"5a89cc2c000dab00018cbd38",6,0.598,"Accuracy","Repeat",0.918957679471486,1,"incongruent"
"5a89cc2c000dab00018cbd38",7,0.95,"Accuracy","Repeat",1.29406583555788,1,"congruent"
"5a89cc2c000dab00018cbd38",1,0.636,"Speed","Switch",-1.45687475725022,1,"incongruent"
"5a89cc2c000dab00018cbd38",6,0.367,"Speed","Switch",-0.248389518537933,0,"incongruent"
"5a89cc2c000dab00018cbd38",7,0.297,"Speed","Switch",0.024537052576812,1,"incongruent"
"5a89cc2c000dab00018cbd38",10,0.332,"Speed","Switch",1.06183496062232,0,"incongruent"
"5a89cc2c000dab00018cbd38",1,1.657,"Accuracy","Switch",-1.45687475725022,1,"incongruent"
"5a89cc2c000dab00018cbd38",3,1.04,"Accuracy","Switch",-0.306778995664588,1,"incongruent"
"5a89cc2c000dab00018cbd38",4,0.654,"Accuracy","Switch",0.263845439891361,1,"congruent"
"5a89cc2c000dab00018cbd38",5,0.955,"Accuracy","Switch",0.663724889304212,1,"incongruent"
"5a89cc2c000dab00018cbd38",1,0.988,"Accuracy","Repeat",-1.45687475725022,1,"incongruent"
"5a89cc2c000dab00018cbd38",2,0.83,"Accuracy","Repeat",-1.01983836784768,1,"congruent"
"5a89cc2c000dab00018cbd38",3,0.895,"Accuracy","Repeat",-0.542106282265956,1,"incongruent"
"5a89cc2c000dab00018cbd38",4,0.725,"Accuracy","Repeat",-0.0356218026445904,1,"congruent"
"5a89cc2c000dab00018cbd38",5,0.733,"Accuracy","Repeat",0.395664107950022,1,"incongruent"
"5a89cc2c000dab00018cbd38",6,0.719,"Accuracy","Repeat",0.830488774734129,1,"congruent"
"5a89cc2c000dab00018cbd38",7,0.643,"Accuracy","Repeat",1.25912061818662,1,"incongruent"
"5a89cc2c000dab00018cbd38",2,0.259,"Speed","Switch",-1.05168717355313,0,"incongruent"
"5a89cc2c000dab00018cbd38",6,0.288,"Speed","Switch",-0.14709262261366,1,"congruent"
"5a89cc2c000dab00018cbd38",8,0.253,"Speed","Switch",0.305868169641606,0,"incongruent"
"5a89cc2c000dab00018cbd38",1,0.753,"Accuracy","Switch",-1.45687475725022,1,"incongruent"
"5a89cc2c000dab00018cbd38",3,0.752,"Accuracy","Switch",-0.145323244518912,1,"incongruent"
"5a89cc2c000dab00018cbd38",4,0.755,"Accuracy","Switch",0.297905968215244,1,"congruent"
"5a89cc2c000dab00018cbd38",5,0.685,"Accuracy","Switch",0.74246221452046,1,"congruent"
"5a89cc2c000dab00018cbd38",6,0.813,"Accuracy","Switch",1.1560543441676,1,"incongruent"
"5a89cc2c000dab00018cbd38",7,1.288,"Accuracy","Switch",1.62626657284665,1,"incongruent"
"5a89cc2c000dab00018cbd38",1,1.853,"Accuracy","Switch",-1.45687475725022,1,"incongruent"
"5a89cc2c000dab00018cbd38",2,1.04,"Accuracy","Switch",-0.637210354858614,1,"congruent"
"5a89cc2c000dab00018cbd38",3,1.473,"Accuracy","Switch",-0.0665859193026652,1,"incongruent"
"5a89cc2c000dab00018cbd38",4,1.477,"Accuracy","Switch",0.695573695009661,1,"incongruent"
"5a89cc2c000dab00018cbd38",5,0.931,"Accuracy","Switch",1.45950268741673,1,"congruent"
"5a89cc2c000dab00018cbd38",6,1.576,"Accuracy","Switch",1.98191156989082,1,"incongruent"
"5a89cc2c000dab00018cbd38",2,1.81,"Accuracy","Repeat",-0.799550795051663,1,"congruent"
"5a89cc2c000dab00018cbd38",3,0.902,"Accuracy","Repeat",0.111678923743108,1,"incongruent"
"5a89cc2c000dab00018cbd38",4,1.363,"Accuracy","Repeat",0.621259815030281,1,"incongruent"
"5a89cc2c000dab00018cbd38",5,0.753,"Accuracy","Repeat",1.33476153173706,1,"congruent"
"5a89cc2c000dab00018cbd38",6,1.066,"Accuracy","Repeat",1.7784330889949,1,"incongruent"
"5a89cc2c000dab00018cbd38",1,0.971,"Accuracy","Repeat",-1.45687475725022,1,"congruent"
"5a89cc2c000dab00018cbd38",2,1.041,"Accuracy","Repeat",-1.02735822475036,1,"incongruent"
"5a89cc2c000dab00018cbd38",3,0.743,"Accuracy","Repeat",-0.45629144467072,1,"congruent"
"5a89cc2c000dab00018cbd38",4,0.871,"Accuracy","Repeat",-0.0170433326497455,1,"incongruent"
"5a89cc2c000dab00018cbd38",5,0.931,"Accuracy","Repeat",0.478824878403137,1,"incongruent"
"5a89cc2c000dab00018cbd38",6,1.032,"Accuracy","Repeat",1.00123376087723,1,"incongruent"
"5a89cc2c000dab00018cbd38",7,1.555,"Accuracy","Repeat",1.56831944024368,1,"congruent"
"5a89cc2c000dab00018cbd38",1,1.072,"Speed","Switch",-1.45687475725022,1,"congruent"
"5a89cc2c000dab00018cbd38",3,0.45,"Speed","Switch",-0.694715142937896,0,"incongruent"
"5a89cc2c000dab00018cbd38",4,0.447,"Speed","Repeat",-0.404979479923054,1,"incongruent"
"5a89cc2c000dab00018cbd38",9,0.449,"Speed","Repeat",0.946383039940066,1,"congruent"
"5a89cc2c000dab00018cbd38",1,1.82,"Accuracy","Switch",-1.45687475725022,1,"congruent"
"5a89cc2c000dab00018cbd38",2,0.947,"Accuracy","Switch",-0.651807724140278,1,"incongruent"
"5a89cc2c000dab00018cbd38",3,1.114,"Accuracy","Switch",-0.1223213292872,1,"congruent"
"5a89cc2c000dab00018cbd38",4,1.347,"Accuracy","Switch",0.481036601021571,1,"incongruent"
"5a89cc2c000dab00018cbd38",5,0.907,"Accuracy","Switch",1.18746080534936,1,"congruent"
"5a89cc2c000dab00018cbd38",6,0.785,"Accuracy","Switch",1.69925341925497,1,"incongruent"
"5a89cc2c000dab00018cbd38",7,1.171,"Accuracy","Switch",2.15708000127079,1,"incongruent"
"5a89cc2c000dab00018cbd38",1,1.152,"Accuracy","Repeat",-1.45687475725022,1,"congruent"
"5a89cc2c000dab00018cbd38",2,1.282,"Accuracy","Repeat",-0.947293865963049,1,"incongruent"
"5a89cc2c000dab00018cbd38",3,1.262,"Accuracy","Repeat",-0.269622055674898,1,"congruent"
"5a89cc2c000dab00018cbd38",4,1.063,"Accuracy","Repeat",0.399202864139517,1,"incongruent"
"5a89cc2c000dab00018cbd38",6,0.712,"Accuracy","Repeat",1.51833450906708,1,"incongruent"
"5a89cc2c000dab00018cbd38",7,0.576,"Accuracy","Repeat",1.94386994085376,1,"congruent"
"5a89cc2c000dab00018cbd38",1,0.54,"Speed","Switch",-1.45687475725022,0,"incongruent"
"5a89cc2c000dab00018cbd38",4,0.262,"Speed","Switch",-0.742930696019755,1,"incongruent"
"5a89cc2c000dab00018cbd38",6,0.339,"Speed","Switch",-0.300586172332973,0,"incongruent"
"5a89cc2c000dab00018cbd38",7,0.261,"Speed","Switch",-0.0400452478814582,1,"incongruent"
"5a89cc2c000dab00018cbd38",8,0.254,"Speed","Switch",0.185992803722488,0,"incongruent"
"5a89cc2c000dab00018cbd38",9,0.274,"Speed","Switch",0.408934443660626,1,"incongruent"
"5a89cc2c000dab00018cbd38",1,1.141,"Accuracy","Switch",-1.45687475725022,1,"incongruent"
"5a89cc2c000dab00018cbd38",2,0.789,"Accuracy","Switch",-0.952159655723603,1,"congruent"
"5a89cc2c000dab00018cbd38",3,1.098,"Accuracy","Switch",-0.492563695613037,1,"incongruent"
"5a89cc2c000dab00018cbd38",4,0.676,"Accuracy","Switch",0.103716722316746,1,"incongruent"
"5a89cc2c000dab00018cbd38",5,0.627,"Accuracy","Switch",0.513327751250707,1,"congruent"
"5a89cc2c000dab00018cbd38",6,2.021,"Accuracy","Switch",0.901263898524015,1,"incongruent"
"5a89cc2c000dab00018cbd38",1,1.126,"Accuracy","Repeat",-1.45687475725022,1,"congruent"
"5a89cc2c000dab00018cbd38",2,1.072,"Accuracy","Repeat",-0.958794823578905,1,"incongruent"
"5a89cc2c000dab00018cbd38",3,0.603,"Accuracy","Repeat",-0.374015363264979,1,"congruent"
"5a89cc2c000dab00018cbd38",4,1.049,"Accuracy","Repeat",0.00330451543984646,1,"incongruent"
"5a89cc2c000dab00018cbd38",5,1.291,"Accuracy","Repeat",0.577910051708977,1,"incongruent"
"5a89cc2c000dab00018cbd38",6,1.09,"Accuracy","Repeat",1.25956296271031,1,"incongruent"
"5a89cc2c000dab00018cbd38",7,0.679,"Accuracy","Repeat",1.8523046244506,1,"congruent"
"5a89cc2c000dab00018cbd38",1,1.03,"Accuracy","Repeat",-1.45687475725022,1,"incongruent"
"5a89cc2c000dab00018cbd38",2,0.845,"Accuracy","Repeat",-1.00125989785284,1,"congruent"
"5a89cc2c000dab00018cbd38",3,0.938,"Accuracy","Repeat",-0.51689264441581,1,"incongruent"
"5a89cc2c000dab00018cbd38",4,0.756,"Accuracy","Repeat",0.00861264972408785,1,"congruent"
"5a89cc2c000dab00018cbd38",5,0.68,"Accuracy","Repeat",0.453611240552991,1,"congruent"
"5a89cc2c000dab00018cbd38",6,0.916,"Accuracy","Repeat",0.864991647581698,1,"incongruent"
"5a89cc2c000dab00018cbd38",1,0.722,"Speed","Switch",-1.45687475725022,1,"incongruent"
"5a89cc2c000dab00018cbd38",3,0.436,"Speed","Switch",-0.65976992556664,0,"incongruent"
"5a89cc2c000dab00018cbd38",5,0.547,"Speed","Switch",-0.0833950112027629,0,"incongruent"
"5a89cc2c000dab00018cbd38",9,0.387,"Speed","Switch",1.06448902776444,1,"congruent"
"5a89cc2c000dab00018cbd38",11,0.39,"Speed","Switch",1.62493953927559,1,"congruent"
"5a89cc2c000dab00018cbd38",2,0.267,"Speed","Repeat",-1.1397137337668,0,"incongruent"
"5a89cc2c000dab00018cbd38",3,0.283,"Speed","Repeat",-0.911021615020733,1,"incongruent"
"5a89cc2c000dab00018cbd38",4,0.269,"Speed","Repeat",-0.675251983895678,0,"incongruent"
"5a89cc2c000dab00018cbd38",6,0.403,"Speed","Repeat",-0.180268461890168,1,"incongruent"
"5a89cc2c000dab00018cbd38",8,0.365,"Speed","Repeat",0.340371042489175,1,"congruent"
"5a89cc2c000dab00018cbd38",1,2.531,"Accuracy","Switch",-1.45687475725022,1,"congruent"
"5a89cc2c000dab00018cbd38",2,0.946,"Accuracy","Switch",-0.337300767798976,1,"incongruent"
"5a89cc2c000dab00018cbd38",3,0.814,"Accuracy","Switch",0.191743282530416,1,"congruent"
"5a89cc2c000dab00018cbd38",4,1.318,"Accuracy","Switch",0.662397855733152,1,"incongruent"
"5a89cc2c000dab00018cbd38",5,0.936,"Accuracy","Switch",1.35599406887403,1,"incongruent"
"5a89cc2c000dab00018cbd38",1,1.797,"Accuracy","Repeat",-1.45687475725022,1,"congruent"
"5a89cc2c000dab00018cbd38",2,0.963,"Accuracy","Repeat",-0.661981648185074,1,"incongruent"
"5a89cc2c000dab00018cbd38",3,0.759,"Accuracy","Repeat",-0.125417740953007,1,"incongruent"
"5a89cc2c000dab00018cbd38",4,0.802,"Accuracy","Repeat",0.320907883446956,1,"congruent"
"5a89cc2c000dab00018cbd38",5,1.028,"Accuracy","Repeat",0.786254322365451,1,"incongruent"
"5a89cc2c000dab00018cbd38",4,0.43,"Speed","Switch",-0.74646945220925,1,"incongruent"
"5a89cc2c000dab00018cbd38",7,0.365,"Speed","Switch",0.0165748511504499,1,"congruent"
"5a89cc2c000dab00018cbd38",9,0.324,"Speed","Switch",0.53898373362454,1,"incongruent"
"5a89cc2c000dab00018cbd38",13,0.268,"Speed","Switch",1.61211154808867,0,"incongruent"
"5a89cc2c000dab00018cbd38",1,0.63,"Speed","Repeat",-1.45687475725022,0,"incongruent"
"5a89cc2c000dab00018cbd38",4,0.263,"Speed","Repeat",-0.77389481267783,0,"incongruent"
"5a89cc2c000dab00018cbd38",9,0.29,"Speed","Repeat",0.333293530110186,1,"incongruent"
"5a89cc2c000dab00018cbd38",12,0.283,"Speed","Repeat",1.06404668324075,1,"congruent"
"5a89cc2c000dab00018cbd38",1,0.602,"Speed","Repeat",-1.45687475725022,1,"incongruent"
"5a89cc2c000dab00018cbd38",3,0.277,"Speed","Repeat",-0.958794823578905,1,"incongruent"
"5a89cc2c000dab00018cbd38",9,0.302,"Speed","Repeat",0.55269641385883,0,"incongruent"
"5a89cc2c000dab00018cbd38",10,0.402,"Speed","Repeat",0.796870590933934,1,"incongruent"
"5a89cc2c000dab00018cbd38",12,0.313,"Speed","Repeat",1.35289765720822,0,"incongruent"
"5a89cc2c000dab00018cbd38",14,0.357,"Speed","Repeat",1.84345773397686,1,"incongruent"
"5a89cc2c000dab00018cbd38",4,0.293,"Speed","Repeat",-0.801320173146411,1,"incongruent"
"5a89cc2c000dab00018cbd38",10,0.292,"Speed","Repeat",0.621259815030281,1,"incongruent"
"5a89cc2c000dab00018cbd38",12,0.437,"Speed","Repeat",1.10828113560943,0,"incongruent"
"5a89cc2c000dab00018cbd38",14,0.283,"Speed","Repeat",1.69881107473128,1,"congruent"
"5a89cc2c000dab00018cbd38",1,1.681,"Accuracy","Switch",-1.45687475725022,1,"congruent"
"5a89cc2c000dab00018cbd38",2,0.562,"Accuracy","Switch",-0.713293612932741,1,"incongruent"
"5a89cc2c000dab00018cbd38",3,0.948,"Accuracy","Switch",-0.354109859699074,1,"incongruent"
"5a89cc2c000dab00018cbd38",4,0.956,"Accuracy","Switch",0.175818879677692,1,"incongruent"
"5a89cc2c000dab00018cbd38",5,0.964,"Accuracy","Switch",0.709286375243951,1,"congruent"
"5a89cc2c000dab00018cbd38",1,0.482,"Speed","Switch",-1.45687475725022,1,"congruent"
"5a89cc2c000dab00018cbd38",4,0.289,"Speed","Switch",-0.770798401012023,1,"congruent"
"5a89cc2c000dab00018cbd38",6,0.385,"Speed","Switch",-0.257236409011668,1,"incongruent"
"5a89cc2c000dab00018cbd38",8,0.52,"Speed","Switch",0.890205285431845,1,"congruent"
"5a89cc2c000dab00018cbd38",1,1.632,"Accuracy","Switch",-1.45687475725022,1,"congruent"
"5a89cc2c000dab00018cbd38",2,1.165,"Accuracy","Switch",-0.734968494593393,1,"incongruent"
"5a89cc2c000dab00018cbd38",3,0.921,"Accuracy","Switch",-0.109050993576596,1,"congruent"
"5a89cc2c000dab00018cbd38",4,1.008,"Accuracy","Switch",0.408934443660626,1,"incongruent"
"5a89cc2c000dab00018cbd38",5,1.111,"Accuracy","Switch",0.965403854458598,1,"incongruent"
"5a89cc2c000dab00018cbd38",1,0.396,"Speed","Switch",-1.45687475725022,1,"congruent"
"5a89cc2c000dab00018cbd38",4,0.287,"Speed","Switch",-0.676136672943051,1,"congruent"
"5a89cc2c000dab00018cbd38",6,0.372,"Speed","Switch",-0.14974668975578,0,"incongruent"
"5a89cc2c000dab00018cbd38",8,0.326,"Speed","Switch",0.418666023181735,0,"incongruent"
"5a89cc2c000dab00018cbd38",13,0.396,"Speed","Switch",1.67580915949957,0,"incongruent"
"5a89cc2c000dab00018cbd38",1,0.472,"Speed","Repeat",-1.45687475725022,0,"incongruent"
"5a89cc2c000dab00018cbd38",4,0.379,"Speed","Repeat",-0.751335241969804,1,"incongruent"
"5a89cc2c000dab00018cbd38",5,0.475,"Speed","Repeat",-0.473100536570818,0,"incongruent"
"5a89cc2c000dab00018cbd38",7,0.513,"Speed","Repeat",0.108140167553614,1,"incongruent"
"5a89cc2c000dab00018cbd38",9,0.422,"Speed","Repeat",0.793774179268126,0,"incongruent"
"5a89cc2c000dab00018cbd38",11,0.49,"Speed","Repeat",1.35466703530297,1,"incongruent"
"5a89cc2c000dab00018cbd38",1,1.757,"Accuracy","Switch",-1.45687475725022,1,"congruent"
"5a89cc2c000dab00018cbd38",2,1.056,"Accuracy","Switch",-0.679675429132545,1,"incongruent"
"5a89cc2c000dab00018cbd38",3,1.075,"Accuracy","Switch",-0.101973481197608,1,"congruent"
"5a89cc2c000dab00018cbd38",4,0.706,"Accuracy","Switch",0.484133012687379,1,"incongruent"
"5a89cc2c000dab00018cbd38",5,0.977,"Accuracy","Switch",0.907014377331943,1,"incongruent"
"5a89cc2c000dab00018cbd38",6,0.823,"Accuracy","Switch",1.44977110789562,1,"congruent"
"5a89cc2c000dab00018cbd38",7,0.986,"Accuracy","Switch",1.92440678181154,1,"congruent"
"5a89cc2c000dab00018cbd38",2,0.271,"Speed","Switch",-1.28834149372556,0,"incongruent"
"5a89cc2c000dab00018cbd38",5,0.271,"Speed","Switch",-0.571743365352971,1,"incongruent"
"5a89cc2c000dab00018cbd38",11,0.303,"Speed","Switch",0.838893320684178,1,"congruent"
"5a89cc2c000dab00018cbd38",1,1.682,"Accuracy","Switch",-1.45687475725022,1,"congruent"
"5a89cc2c000dab00018cbd38",2,0.939,"Accuracy","Switch",-0.712851268409054,1,"incongruent"
"5a89cc2c000dab00018cbd38",3,1.218,"Accuracy","Switch",-0.18690362974547,1,"congruent"
"5a89cc2c000dab00018cbd38",4,0.806,"Accuracy","Switch",0.462458131026727,1,"incongruent"
"5a89cc2c000dab00018cbd38",1,1.363,"Accuracy","Repeat",-1.45687475725022,1,"congruent"
"5a89cc2c000dab00018cbd38",2,0.771,"Accuracy","Repeat",-0.853959171465138,1,"incongruent"
"5a89cc2c000dab00018cbd38",3,0.971,"Accuracy","Repeat",-0.402325412780933,1,"congruent"
"5a89cc2c000dab00018cbd38",4,1.231,"Accuracy","Repeat",0.137777250640628,1,"incongruent"
"5a89cc2c000dab00018cbd38",5,1.962,"Accuracy","Repeat",0.792889490220753,1,"congruent"
"5a89cc2c000dab00018cbd38",6,1.456,"Accuracy","Repeat",1.77135557661592,1,"incongruent"
"5b57d2acbc04d60001e5e76e",1,0.982,"Accuracy","Repeat",-1.45687475725022,1,"incongruent"
"5b57d2acbc04d60001e5e76e",2,1.01,"Accuracy","Repeat",-1.0224924349898,1,"congruent"
"5b57d2acbc04d60001e5e76e",3,0.653,"Accuracy","Repeat",-0.465138335144456,1,"congruent"
"5b57d2acbc04d60001e5e76e",4,1.369,"Accuracy","Repeat",-0.0657012302552916,1,"incongruent"
"5b57d2acbc04d60001e5e76e",5,0.693,"Accuracy","Repeat",0.650454553593609,1,"incongruent"
"5b57d2acbc04d60001e5e76e",6,0.74,"Accuracy","Repeat",1.06758543943024,1,"incongruent"
"5b57d2acbc04d60001e5e76e",7,0.757,"Accuracy","Repeat",1.50550651788016,1,"congruent"
"5b57d2acbc04d60001e5e76e",8,0.689,"Accuracy","Repeat",1.95094745323275,1,"incongruent"
"5b57d2acbc04d60001e5e76e",9,0.654,"Accuracy","Repeat",2.36630896097464,1,"congruent"
"5b57d2acbc04d60001e5e76e",1,0.838,"Accuracy","Repeat",-1.45687475725022,1,"congruent"
"5b57d2acbc04d60001e5e76e",2,0.661,"Accuracy","Repeat",-1.0861900464007,1,"incongruent"
"5b57d2acbc04d60001e5e76e",3,0.812,"Accuracy","Repeat",-0.68321418532204,1,"incongruent"
"5b57d2acbc04d60001e5e76e",4,0.835,"Accuracy","Repeat",-0.213444301166677,1,"incongruent"
"5b57d2acbc04d60001e5e76e",5,0.871,"Accuracy","Repeat",0.266499507033482,1,"congruent"
"5b57d2acbc04d60001e5e76e",6,0.963,"Accuracy","Repeat",0.762367718086365,1,"incongruent"
"5b57d2acbc04d60001e5e76e",1,0.662,"Speed","Switch",-1.45687475725022,1,"congruent"
"5b57d2acbc04d60001e5e76e",2,0.514,"Speed","Switch",-1.16404268256957,0,"incongruent"
"5b57d2acbc04d60001e5e76e",3,0.396,"Speed","Switch",-0.82609146647287,0,"incongruent"
"5b57d2acbc04d60001e5e76e",4,0.382,"Speed","Switch",-0.540336904171209,0,"incongruent"
"5b57d2acbc04d60001e5e76e",5,0.43,"Speed","Switch",-0.260775165201163,1,"congruent"
"5b57d2acbc04d60001e5e76e",6,0.358,"Speed","Switch",0.0400191109058494,1,"congruent"
"5b57d2acbc04d60001e5e76e",7,0.417,"Speed","Switch",0.308964581307413,1,"incongruent"
"5b57d2acbc04d60001e5e76e",5,0.423,"Speed","Repeat",-0.67082853865881,1,"incongruent"
"5b57d2acbc04d60001e5e76e",6,0.256,"Speed","Repeat",-0.373130674217605,0,"incongruent"
"5b57d2acbc04d60001e5e76e",11,0.28,"Speed","Repeat",0.788023700460198,1,"incongruent"
"5b57d2acbc04d60001e5e76e",1,0.742,"Speed","Repeat",-1.45687475725022,0,"incongruent"
"5b57d2acbc04d60001e5e76e",2,0.592,"Speed","Repeat",-1.12865512067463,1,"congruent"
"5b57d2acbc04d60001e5e76e",4,0.514,"Speed","Repeat",-0.572628054400344,1,"congruent"
"5b57d2acbc04d60001e5e76e",5,0.431,"Speed","Repeat",-0.234676838303642,1,"congruent"
"5b57d2acbc04d60001e5e76e",6,0.299,"Speed","Repeat",0.0665597823270563,0,"incongruent"
"5b57d2acbc04d60001e5e76e",7,0.287,"Speed","Repeat",0.3094069258311,0,"incongruent"
"5b57d2acbc04d60001e5e76e",1,1.111,"Accuracy","Switch",-1.45687475725022,1,"incongruent"
"5b57d2acbc04d60001e5e76e",2,0.661,"Accuracy","Switch",-0.965429991434207,1,"congruent"
"5b57d2acbc04d60001e5e76e",3,1.105,"Accuracy","Switch",-0.562454130355548,1,"incongruent"
"5b57d2acbc04d60001e5e76e",4,0.766,"Accuracy","Switch",0.0369226992400419,1,"congruent"
"5b57d2acbc04d60001e5e76e",5,0.827,"Accuracy","Switch",0.486344735305813,1,"congruent"
"5b57d2acbc04d60001e5e76e",6,0.816,"Accuracy","Switch",0.962749787316477,1,"incongruent"
"5b57d2acbc04d60001e5e76e",1,0.646,"Speed","Switch",-1.45687475725022,1,"incongruent"
"5b57d2acbc04d60001e5e76e",2,0.349,"Speed","Switch",-1.17112019494856,1,"congruent"
"5b57d2acbc04d60001e5e76e",5,0.373,"Speed","Switch",-0.450983310386479,0,"incongruent"
"5b57d2acbc04d60001e5e76e",6,0.398,"Speed","Switch",-0.175402672129614,0,"incongruent"
"5b57d2acbc04d60001e5e76e",7,0.308,"Speed","Switch",0.111236579219421,1,"congruent"
"5b57d2acbc04d60001e5e76e",8,0.461,"Speed","Switch",0.358064823436646,1,"incongruent"
"5b57d2acbc04d60001e5e76e",1,1.096,"Accuracy","Switch",-1.45687475725022,1,"congruent"
"5b57d2acbc04d60001e5e76e",2,0.687,"Accuracy","Switch",-0.972065159289509,1,"incongruent"
"5b57d2acbc04d60001e5e76e",3,0.739,"Accuracy","Switch",-0.557588340594994,1,"incongruent"
"5b57d2acbc04d60001e5e76e",4,0.691,"Accuracy","Switch",-0.120109606668766,1,"congruent"
"5b57d2acbc04d60001e5e76e",5,0.749,"Accuracy","Switch",0.296136590120496,1,"incongruent"
"5b57d2acbc04d60001e5e76e",6,1.355,"Accuracy","Switch",0.738038769283592,1,"incongruent"
"5b57d2acbc04d60001e5e76e",7,0.707,"Accuracy","Switch",1.44800172980088,1,"incongruent"
"5b57d2acbc04d60001e5e76e",1,1.159,"Accuracy","Repeat",-1.45687475725022,1,"congruent"
"5b57d2acbc04d60001e5e76e",2,0.992,"Accuracy","Repeat",-0.944197454297241,1,"incongruent"
"5b57d2acbc04d60001e5e76e",3,0.783,"Accuracy","Repeat",-0.394805555878258,1,"incongruent"
"5b57d2acbc04d60001e5e76e",4,0.629,"Accuracy","Repeat",0.0621363370901885,1,"incongruent"
"5b57d2acbc04d60001e5e76e",5,0.693,"Accuracy","Repeat",0.45095717341087,1,"congruent"
"5b57d2acbc04d60001e5e76e",6,0.629,"Accuracy","Repeat",0.868088059247506,1,"congruent"
"5b57d2acbc04d60001e5e76e",7,0.688,"Accuracy","Repeat",1.25690889556819,1,"congruent"
"5b57d2acbc04d60001e5e76e",8,0.877,"Accuracy","Repeat",1.67182805878639,1,"incongruent"
"5b57d2acbc04d60001e5e76e",1,1.071,"Accuracy","Repeat",-1.45687475725022,1,"incongruent"
"5b57d2acbc04d60001e5e76e",2,0.685,"Accuracy","Repeat",-0.983123772381678,1,"congruent"
"5b57d2acbc04d60001e5e76e",3,1.314,"Accuracy","Repeat",-0.569531642734537,1,"congruent"
"5b57d2acbc04d60001e5e76e",4,0.703,"Accuracy","Repeat",0.122295192311591,1,"incongruent"
"5b57d2acbc04d60001e5e76e",5,0.806,"Accuracy","Repeat",0.543849523385095,1,"incongruent"
"5b57d2acbc04d60001e5e76e",6,0.699,"Accuracy","Repeat",1.01096534039834,1,"incongruent"
"5b57d2acbc04d60001e5e76e",1,0.605,"Speed","Switch",-1.45687475725022,1,"incongruent"
"5b57d2acbc04d60001e5e76e",2,0.286,"Speed","Switch",-1.18925632041972,1,"congruent"
"5b57d2acbc04d60001e5e76e",3,0.356,"Speed","Switch",-0.952159655723603,1,"incongruent"
"5b57d2acbc04d60001e5e76e",4,0.448,"Speed","Switch",-0.684098874369413,1,"incongruent"
"5b57d2acbc04d60001e5e76e",5,0.488,"Speed","Switch",-0.375342396836039,1,"congruent"
"5b57d2acbc04d60001e5e76e",6,0.33,"Speed","Switch",-0.0488921383551939,0,"incongruent"
"5b57d2acbc04d60001e5e76e",10,0.39,"Speed","Switch",1.04635290229328,1,"congruent"
"5b57d2acbc04d60001e5e76e",2,0.374,"Speed","Repeat",-1.19721852184608,1,"congruent"
"5b57d2acbc04d60001e5e76e",3,0.311,"Speed","Repeat",-0.921195539065529,0,"incongruent"
"5b57d2acbc04d60001e5e76e",10,0.505,"Speed","Repeat",0.484133012687379,1,"incongruent"
"5b57d2acbc04d60001e5e76e",11,0.454,"Speed","Repeat",0.818103128070899,1,"incongruent"
"5b57d2acbc04d60001e5e76e",1,0.629,"Speed","Repeat",-1.45687475725022,0,"incongruent"
"5b57d2acbc04d60001e5e76e",8,0.283,"Speed","Repeat",0.25721027203606,1,"congruent"
"5b57d2acbc04d60001e5e76e",1,0.61,"Speed","Repeat",-1.45687475725022,1,"congruent"
"5b57d2acbc04d60001e5e76e",2,0.322,"Speed","Repeat",-1.18704459780128,1,"incongruent"
"5b57d2acbc04d60001e5e76e",9,0.685,"Speed","Repeat",0.400972242234264,1,"congruent"
"5b57d2acbc04d60001e5e76e",10,0.465,"Speed","Repeat",0.814564371881405,1,"incongruent"
"5b57d2acbc04d60001e5e76e",1,1.174,"Accuracy","Switch",-1.45687475725022,1,"incongruent"
"5b57d2acbc04d60001e5e76e",2,0.706,"Accuracy","Switch",-0.93756228644194,1,"congruent"
"5b57d2acbc04d60001e5e76e",3,0.644,"Accuracy","Switch",-0.514680921797376,1,"congruent"
"5b57d2acbc04d60001e5e76e",4,0.857,"Accuracy","Switch",-0.119224917621392,1,"incongruent"
"5b57d2acbc04d60001e5e76e",5,0.858,"Accuracy","Switch",0.370450470099876,1,"incongruent"
"5b57d2acbc04d60001e5e76e",6,0.674,"Accuracy","Switch",0.860568202344831,1,"congruent"
"5b57d2acbc04d60001e5e76e",7,0.873,"Accuracy","Switch",1.26929454223142,1,"congruent"
"5b57d2acbc04d60001e5e76e",8,0.707,"Accuracy","Switch",1.76604744233167,1,"incongruent"
"5b57d2acbc04d60001e5e76e",9,1.21,"Accuracy","Switch",2.18937115149992,1,"incongruent"
"5b57d2acbc04d60001e5e76e",1,1.321,"Accuracy","Repeat",-1.45687475725022,1,"incongruent"
"5b57d2acbc04d60001e5e76e",2,0.76,"Accuracy","Repeat",-0.872537641459983,1,"congruent"
"5b57d2acbc04d60001e5e76e",3,0.946,"Accuracy","Repeat",-0.425769672536332,1,"incongruent"
"5b57d2acbc04d60001e5e76e",4,0.784,"Accuracy","Repeat",0.103274377793059,1,"incongruent"
"5b57d2acbc04d60001e5e76e",5,0.762,"Accuracy","Repeat",0.560658615285192,1,"congruent"
"5b57d2acbc04d60001e5e76e",6,0.866,"Accuracy","Repeat",1.00831127325622,1,"incongruent"
"5b57d2acbc04d60001e5e76e",1,0.776,"Accuracy","Repeat",-1.45687475725022,1,"congruent"
"5b57d2acbc04d60001e5e76e",2,1.202,"Accuracy","Repeat",-1.11361540686928,1,"incongruent"
"5b57d2acbc04d60001e5e76e",3,1.152,"Accuracy","Repeat",-0.471331158476071,1,"incongruent"
"5b57d2acbc04d60001e5e76e",4,0.586,"Accuracy","Repeat",0.148835863732798,1,"congruent"
"5b57d2acbc04d60001e5e76e",5,0.589,"Accuracy","Repeat",0.518635885534948,1,"congruent"
"5b57d2acbc04d60001e5e76e",6,0.719,"Accuracy","Repeat",0.889762940908158,1,"incongruent"
"5b57d2acbc04d60001e5e76e",7,0.703,"Accuracy","Repeat",1.31839478436065,1,"congruent"
"5b57d2acbc04d60001e5e76e",1,0.757,"Accuracy","Repeat",-1.45687475725022,1,"congruent"
"5b57d2acbc04d60001e5e76e",2,1.324,"Accuracy","Repeat",-1.12201995281933,1,"incongruent"
"5b57d2acbc04d60001e5e76e",3,0.903,"Accuracy","Repeat",-0.425769672536332,1,"incongruent"
"5b57d2acbc04d60001e5e76e",5,1.739,"Accuracy","Repeat",0.605777756701244,1,"congruent"
"5b57d2acbc04d60001e5e76e",6,1.029,"Accuracy","Repeat",1.48560101431425,1,"incongruent"
"5b57d2acbc04d60001e5e76e",7,0.932,"Accuracy","Repeat",2.05135966010965,1,"incongruent"
"5b57d2acbc04d60001e5e76e",1,0.693,"Speed","Switch",-1.45687475725022,1,"congruent"
"5b57d2acbc04d60001e5e76e",2,0.291,"Speed","Switch",-1.15033000233528,0,"incongruent"
"5b57d2acbc04d60001e5e76e",4,0.751,"Speed","Switch",-0.714178301980114,1,"congruent"
"5b57d2acbc04d60001e5e76e",5,0.317,"Speed","Switch",-0.271391433769645,0,"incongruent"
"5b57d2acbc04d60001e5e76e",6,0.5,"Speed","Switch",-0.0205820888392398,1,"congruent"
"5b57d2acbc04d60001e5e76e",8,0.33,"Speed","Switch",0.525713397913936,1,"incongruent"
"5b57d2acbc04d60001e5e76e",10,0.549,"Speed","Switch",0.967173232553345,1,"incongruent"
"5b57d2acbc04d60001e5e76e",11,0.386,"Speed","Switch",1.32060650697908,0,"incongruent"
"5b57d2acbc04d60001e5e76e",1,0.862,"Speed","Repeat",-1.45687475725022,1,"incongruent"
"5b57d2acbc04d60001e5e76e",2,0.351,"Speed","Repeat",-1.07557377783222,1,"congruent"
"5b57d2acbc04d60001e5e76e",3,0.709,"Speed","Repeat",-0.809724719096459,1,"incongruent"
"5b57d2acbc04d60001e5e76e",4,0.508,"Speed","Repeat",-0.385516320880835,1,"incongruent"
"5b57d2acbc04d60001e5e76e",5,0.554,"Speed","Repeat",-0.0502191719262542,1,"congruent"
"5b57d2acbc04d60001e5e76e",6,0.642,"Speed","Repeat",0.305425825117919,1,"incongruent"
"5b57d2acbc04d60001e5e76e",8,0.396,"Speed","Repeat",0.991502181356118,1,"incongruent"
"5b57d2acbc04d60001e5e76e",1,0.855,"Accuracy","Switch",-1.45687475725022,1,"incongruent"
"5b57d2acbc04d60001e5e76e",2,0.806,"Accuracy","Switch",-1.07867018949802,1,"congruent"
"5b57d2acbc04d60001e5e76e",3,0.802,"Accuracy","Switch",-0.611554372484781,1,"incongruent"
"5b57d2acbc04d60001e5e76e",4,1.036,"Accuracy","Switch",-0.146207933566286,1,"incongruent"
"5b57d2acbc04d60001e5e76e",5,0.902,"Accuracy","Switch",0.422647123894916,1,"congruent"
"5b57d2acbc04d60001e5e76e",6,1.137,"Accuracy","Switch",0.932228015182089,1,"incongruent"
"5b57d2acbc04d60001e5e76e",1,0.71,"Speed","Switch",-1.45687475725022,1,"incongruent"
"5b57d2acbc04d60001e5e76e",3,0.362,"Speed","Switch",-0.937119941918253,1,"incongruent"
"5b57d2acbc04d60001e5e76e",6,0.749,"Speed","Switch",-0.271391433769645,1,"congruent"
"5b57d2acbc04d60001e5e76e",10,0.342,"Speed","Switch",0.830931119257816,1,"incongruent"
"5b57d2acbc04d60001e5e76e",14,0.284,"Speed","Switch",1.83328380993206,0,"incongruent"
"5b57d2acbc04d60001e5e76e",1,1.249,"Accuracy","Switch",-1.45687475725022,1,"incongruent"
"5b57d2acbc04d60001e5e76e",2,0.798,"Accuracy","Switch",-0.904386447165431,1,"congruent"
"5b57d2acbc04d60001e5e76e",3,0.747,"Accuracy","Switch",-0.440809386341683,1,"incongruent"
"5b57d2acbc04d60001e5e76e",4,0.692,"Accuracy","Switch",0.000208103774038982,1,"congruent"
"5b57d2acbc04d60001e5e76e",5,0.876,"Accuracy","Switch",0.416896645086988,1,"incongruent"
"5b57d2acbc04d60001e5e76e",6,0.599,"Accuracy","Switch",0.914976578758305,1,"congruent"
"5b57d2acbc04d60001e5e76e",7,0.839,"Accuracy","Switch",1.29052707936838,1,"congruent"
"5b57d2acbc04d60001e5e76e",1,0.861,"Accuracy","Repeat",-1.45687475725022,1,"congruent"
"5b57d2acbc04d60001e5e76e",2,0.955,"Accuracy","Repeat",-1.0760161223559,1,"incongruent"
"5b57d2acbc04d60001e5e76e",3,0.803,"Accuracy","Repeat",-0.54299097131333,1,"incongruent"
"5b57d2acbc04d60001e5e76e",4,0.756,"Accuracy","Repeat",-0.0772021878711479,1,"incongruent"
"5b57d2acbc04d60001e5e76e",5,0.628,"Accuracy","Repeat",0.367796402957755,1,"congruent"
"5b57d2acbc04d60001e5e76e",6,0.537,"Accuracy","Repeat",0.75617489475475,1,"congruent"
"5b57d2acbc04d60001e5e76e",1,0.462,"Speed","Switch",-1.45687475725022,0,"incongruent"
"5b57d2acbc04d60001e5e76e",3,0.801,"Speed","Switch",-1.0861900464007,1,"congruent"
"5b57d2acbc04d60001e5e76e",6,0.404,"Speed","Switch",-0.185134251650723,1,"incongruent"
"5b57d2acbc04d60001e5e76e",10,0.437,"Speed","Switch",0.868972748294879,0,"incongruent"
"5b57d2acbc04d60001e5e76e",11,0.334,"Speed","Switch",1.1728634360677,1,"congruent"
"5b57d2acbc04d60001e5e76e",6,0.402,"Speed","Repeat",0.0815994961324069,1,"incongruent"
"5b57d2acbc04d60001e5e76e",7,0.36,"Speed","Repeat",0.370008125576189,1,"congruent"
"5b57d2acbc04d60001e5e76e",8,0.414,"Speed","Repeat",0.639838285025126,0,"incongruent"
"5b57d2acbc04d60001e5e76e",1,0.973,"Accuracy","Switch",-1.45687475725022,1,"congruent"
"5b57d2acbc04d60001e5e76e",2,1.027,"Accuracy","Switch",-1.02647353570298,1,"incongruent"
"5b57d2acbc04d60001e5e76e",3,0.727,"Accuracy","Switch",-0.461599578954962,1,"congruent"
"5b57d2acbc04d60001e5e76e",4,0.63,"Accuracy","Switch",-0.0294289793129754,1,"incongruent"
"5b57d2acbc04d60001e5e76e",5,0.616,"Accuracy","Switch",0.359834201531393,1,"congruent"
"5b57d2acbc04d60001e5e76e",6,0.679,"Accuracy","Switch",0.742904559044147,1,"incongruent"
"5b57d2acbc04d60001e5e76e",7,0.67,"Accuracy","Switch",1.15384262154917,1,"congruent"
"5b57d2acbc04d60001e5e76e",8,0.769,"Accuracy","Switch",1.56079958334101,1,"incongruent"
"5b57d2acbc04d60001e5e76e",9,0.557,"Accuracy","Switch",2.01154865297784,1,"congruent"
"5b57d2acbc04d60001e5e76e",10,0.629,"Accuracy","Switch",2.36852068359307,1,"incongruent"
"5b57d2acbc04d60001e5e76e",1,0.721,"Speed","Switch",-1.45687475725022,1,"congruent"
"5b57d2acbc04d60001e5e76e",2,0.342,"Speed","Switch",-1.13794435567205,0,"incongruent"
"5b57d2acbc04d60001e5e76e",3,0.318,"Speed","Switch",-0.876076397649477,1,"congruent"
"5b57d2acbc04d60001e5e76e",5,0.262,"Speed","Switch",-0.377554119454473,1,"congruent"
"5b57d2acbc04d60001e5e76e",9,0.313,"Speed","Switch",0.598257899798569,1,"congruent"
"5b57d2acbc04d60001e5e76e",10,0.317,"Speed","Switch",0.847297866634227,1,"incongruent"
"5b57d2acbc04d60001e5e76e",13,0.324,"Speed","Switch",1.58557087666747,1,"incongruent"
"5b57d2acbc04d60001e5e76e",1,0.531,"Speed","Repeat",-1.45687475725022,1,"congruent"
"5b57d2acbc04d60001e5e76e",2,0.317,"Speed","Repeat",-1.22198981517254,1,"incongruent"
"5b57d2acbc04d60001e5e76e",3,0.338,"Speed","Repeat",-0.971180470242135,1,"congruent"
"5b57d2acbc04d60001e5e76e",4,0.311,"Speed","Repeat",-0.711081890314307,0,"incongruent"
"5b57d2acbc04d60001e5e76e",5,0.31,"Speed","Repeat",-0.462926612526022,1,"incongruent"
"5b57d2acbc04d60001e5e76e",8,0.297,"Speed","Repeat",0.257652616559746,1,"incongruent"
"5b57d2acbc04d60001e5e76e",9,0.272,"Speed","Repeat",0.499615071016416,1,"congruent"
"5b57d2acbc04d60001e5e76e",11,0.295,"Speed","Repeat",0.944613661845319,0,"incongruent"
"5b57d2acbc04d60001e5e76e",12,0.302,"Speed","Repeat",1.18569142725462,1,"incongruent"
"5b57d2acbc04d60001e5e76e",13,0.277,"Speed","Repeat",1.42986560432972,0,"incongruent"
"5b57d2acbc04d60001e5e76e",2,0.267,"Speed","Switch",-1.33346063514161,1,"incongruent"
"5b57d2acbc04d60001e5e76e",3,0.281,"Speed","Switch",-1.10476851639554,1,"congruent"
"5b57d2acbc04d60001e5e76e",4,0.293,"Speed","Switch",-0.869883574317862,0,"incongruent"
"5b57d2acbc04d60001e5e76e",9,0.264,"Speed","Switch",0.235977734899094,1,"congruent"
"5b57d2acbc04d60001e5e76e",10,0.258,"Speed","Switch",0.4633428200741,0,"incongruent"
"5b57d2acbc04d60001e5e76e",11,0.335,"Speed","Switch",0.688053838106986,0,"incongruent"
"5b57d2acbc04d60001e5e76e",1,0.89,"Accuracy","Switch",-1.45687475725022,1,"incongruent"
"5b57d2acbc04d60001e5e76e",2,0.572,"Accuracy","Switch",-1.06318813116899,1,"congruent"
"5b57d2acbc04d60001e5e76e",3,0.752,"Accuracy","Switch",-0.699580932698451,1,"incongruent"
"5b57d2acbc04d60001e5e76e",4,0.599,"Accuracy","Switch",-0.256351719964295,1,"congruent"
"5b57d2acbc04d60001e5e76e",5,0.576,"Accuracy","Switch",0.119198780645783,1,"congruent"
"5b57d2acbc04d60001e5e76e",6,0.673,"Accuracy","Switch",0.484575357211066,1,"incongruent"
"5b57d2acbc04d60001e5e76e",7,0.537,"Accuracy","Switch",0.892859352573966,1,"congruent"
"5b57d2acbc04d60001e5e76e",8,0.766,"Accuracy","Switch",1.24098449271546,1,"incongruent"
"5b57d2acbc04d60001e5e76e",9,0.635,"Accuracy","Switch",1.69040652878123,1,"incongruent"
"5b57d2acbc04d60001e5e76e",10,0.649,"Accuracy","Switch",2.08188143224404,1,"congruent"
"5b57d2acbc04d60001e5e76e",4,0.265,"Speed","Switch",-0.896424245739069,0,"incongruent"
"5b57d2acbc04d60001e5e76e",6,0.258,"Speed","Switch",-0.450540965862792,1,"congruent"
"5b57d2acbc04d60001e5e76e",7,0.293,"Speed","Switch",-0.225829947829907,1,"incongruent"
"5b57d2acbc04d60001e5e76e",10,0.254,"Speed","Switch",0.465996887216221,1,"incongruent"
"5b57d2acbc04d60001e5e76e",1,0.978,"Accuracy","Switch",-1.45687475725022,1,"congruent"
"5b57d2acbc04d60001e5e76e",2,0.746,"Accuracy","Switch",-1.02426181308455,1,"incongruent"
"5b57d2acbc04d60001e5e76e",3,0.556,"Accuracy","Switch",-0.583686667492514,1,"congruent"
"5b57d2acbc04d60001e5e76e",4,0.733,"Accuracy","Switch",-0.227156981400967,1,"incongruent"
"5b57d2acbc04d60001e5e76e",5,0.672,"Accuracy","Switch",0.20766768538314,1,"incongruent"
"5b57d2acbc04d60001e5e76e",6,0.597,"Accuracy","Switch",0.615509336222353,1,"incongruent"
"5b57d2acbc04d60001e5e76e",7,0.769,"Accuracy","Switch",0.990175147785058,1,"incongruent"
"5b57d2acbc04d60001e5e76e",2,2.112,"Accuracy","Repeat",-1.13794435567205,1,"incongruent"
"5b57d2acbc04d60001e5e76e",3,1.163,"Accuracy","Repeat",-0.0931265907238721,1,"incongruent"
"5b57d2acbc04d60001e5e76e",4,1.148,"Accuracy","Repeat",0.531906221245551,1,"congruent"
"5b57d2acbc04d60001e5e76e",5,0.821,"Accuracy","Repeat",1.15030386535967,1,"incongruent"
"5b57d2acbc04d60001e5e76e",1,0.808,"Accuracy","Repeat",-1.45687475725022,1,"incongruent"
"5b57d2acbc04d60001e5e76e",2,0.648,"Accuracy","Repeat",-1.0994603821113,1,"congruent"
"5b57d2acbc04d60001e5e76e",3,0.562,"Accuracy","Repeat",-0.702234999840571,1,"congruent"
"5b57d2acbc04d60001e5e76e",4,1.426,"Accuracy","Repeat",-0.343051246606904,1,"incongruent"
"5b57d2acbc04d60001e5e76e",5,0.608,"Accuracy","Repeat",0.398318175092143,1,"incongruent"
"5b57d2acbc04d60001e5e76e",6,0.782,"Accuracy","Repeat",0.777849776415402,1,"incongruent"
"5b57d2acbc04d60001e5e76e",7,1.055,"Accuracy","Repeat",1.23434932486016,1,"congruent"
"5b57d2acbc04d60001e5e76e",8,1.001,"Accuracy","Repeat",1.81160892827141,1,"congruent"
"5b57d2acbc04d60001e5e76e",9,0.663,"Accuracy","Repeat",2.36498192740358,1,"congruent"
"5b57d2acbc04d60001e5e76e",3,0.359,"Speed","Switch",-1.1463489016221,1,"congruent"
"5b57d2acbc04d60001e5e76e",8,0.384,"Speed","Switch",0.020555951863631,0,"incongruent"
"5b57d2acbc04d60001e5e76e",4,0.254,"Speed","Repeat",-0.857940272178319,1,"incongruent"
"5b57d2acbc04d60001e5e76e",9,0.483,"Speed","Repeat",0.2089947189542,1,"congruent"
"5b57d2acbc04d60001e5e76e",12,0.299,"Speed","Repeat",0.965403854458598,1,"incongruent"
"5b57d2acbc04d60001e5e76e",1,0.775,"Accuracy","Switch",-1.45687475725022,1,"incongruent"
"5b57d2acbc04d60001e5e76e",2,0.752,"Accuracy","Switch",-1.11405775139297,1,"congruent"
"5b57d2acbc04d60001e5e76e",3,0.739,"Accuracy","Switch",-0.67082853865881,1,"incongruent"
"5b57d2acbc04d60001e5e76e",4,0.903,"Accuracy","Switch",-0.233349804732582,1,"incongruent"
"5b57d2acbc04d60001e5e76e",5,0.684,"Accuracy","Switch",0.276673431078278,1,"congruent"
"5b57d2acbc04d60001e5e76e",6,0.727,"Accuracy","Switch",0.689823216201733,1,"incongruent"
"5b57d2acbc04d60001e5e76e",7,0.722,"Accuracy","Switch",1.12199381584372,1,"congruent"
"5b57d2acbc04d60001e5e76e",8,0.776,"Accuracy","Switch",1.55195269286727,1,"incongruent"
"5b57d2acbc04d60001e5e76e",9,0.604,"Accuracy","Switch",2.00579817416991,1,"congruent"
"5b57d2acbc04d60001e5e76e",10,0.593,"Accuracy","Switch",2.38356039739842,1,"incongruent"
"5b57d2acbc04d60001e5e76e",6,0.371,"Speed","Switch",-0.301913205904033,0,"incongruent"
"5b57d2acbc04d60001e5e76e",11,0.436,"Speed","Switch",1.07289357371449,1,"congruent"
"5b57d2acbc04d60001e5e76e",12,0.346,"Speed","Switch",1.37634191696362,1,"incongruent"
"5b57d2acbc04d60001e5e76e",13,0.284,"Speed","Switch",1.63997925308094,0,"incongruent"
"5b57d2acbc04d60001e5e76e",1,0.722,"Accuracy","Switch",-1.45687475725022,1,"incongruent"
"5b57d2acbc04d60001e5e76e",2,0.556,"Accuracy","Switch",-1.13750201114837,1,"congruent"
"5b57d2acbc04d60001e5e76e",3,0.49,"Accuracy","Switch",-0.780972325056819,1,"congruent"
"5b57d2acbc04d60001e5e76e",4,0.727,"Accuracy","Switch",-0.4536373775286,1,"incongruent"
"5b57d2acbc04d60001e5e76e",5,0.596,"Accuracy","Switch",-0.0214667778866134,1,"incongruent"
"5b57d2acbc04d60001e5e76e",6,0.608,"Accuracy","Switch",0.352756689152404,1,"congruent"
"5b57d2acbc04d60001e5e76e",7,0.564,"Accuracy","Switch",0.732288290475664,1,"congruent"
"5b57d2acbc04d60001e5e76e",8,0.64,"Accuracy","Switch",1.0923567327567,1,"incongruent"
"5b57d2acbc04d60001e5e76e",9,0.462,"Accuracy","Switch",1.48604335883794,1,"congruent"
"5b57d2acbc04d60001e5e76e",1,0.843,"Accuracy","Repeat",-1.45687475725022,1,"congruent"
"5b57d2acbc04d60001e5e76e",2,0.607,"Accuracy","Repeat",-1.08397832378226,1,"incongruent"
"5b57d2acbc04d60001e5e76e",3,0.574,"Accuracy","Repeat",-0.704889066982692,1,"incongruent"
"5b57d2acbc04d60001e5e76e",4,0.556,"Accuracy","Repeat",-0.340397179464783,1,"congruent"
"5b57d2acbc04d60001e5e76e",5,0.517,"Accuracy","Repeat",0.0161325066267631,1,"congruent"
"5b57d2acbc04d60001e5e76e",6,0.534,"Accuracy","Repeat",0.355410756294525,0,"incongruent"
"5b57d2acbc04d60001e5e76e",7,0.726,"Accuracy","Repeat",0.702208862864963,1,"congruent"
"5b57d2acbc04d60001e5e76e",1,0.294,"Speed","Switch",-1.45687475725022,1,"incongruent"
"5b57d2acbc04d60001e5e76e",3,0.64,"Speed","Switch",-1.10874961710872,0,"incongruent"
"5b57d2acbc04d60001e5e76e",10,0.324,"Speed","Switch",0.953902896842742,1,"incongruent"
"5b57d2acbc04d60001e5e76e",1,0.714,"Accuracy","Switch",-1.45687475725022,1,"incongruent"
"5b57d2acbc04d60001e5e76e",2,0.703,"Accuracy","Switch",-1.14104076733786,1,"congruent"
"5b57d2acbc04d60001e5e76e",3,0.696,"Accuracy","Switch",-0.719486436264356,1,"incongruent"
"5b57d2acbc04d60001e5e76e",4,0.909,"Accuracy","Switch",-0.30102851685666,1,"incongruent"
"5b57d2acbc04d60001e5e76e",5,0.953,"Accuracy","Switch",0.211648786096321,1,"congruent"
"5b57d2acbc04d60001e5e76e",6,0.468,"Accuracy","Switch",0.74378924809152,1,"congruent"
"5b57d2acbc04d60001e5e76e",7,0.955,"Accuracy","Switch",1.06139261609863,1,"incongruent"
"5b57d2acbc04d60001e5e76e",8,0.659,"Accuracy","Switch",1.5944177671412,1,"incongruent"
"5b57d2acbc04d60001e5e76e",1,0.537,"Speed","Switch",-1.45687475725022,1,"incongruent"
"5b57d2acbc04d60001e5e76e",3,0.269,"Speed","Switch",-0.984450805952738,1,"incongruent"
"5b57d2acbc04d60001e5e76e",6,0.289,"Speed","Switch",-0.283334735909189,1,"incongruent"
"5b57d2acbc04d60001e5e76e",7,0.3,"Speed","Switch",-0.0449110376420128,1,"incongruent"
"5b57d2acbc04d60001e5e76e",8,0.264,"Speed","Switch",0.198378450385717,1,"congruent"
"5b57d2acbc04d60001e5e76e",9,0.335,"Speed","Switch",0.425743535560724,1,"congruent"
"5b57d2acbc04d60001e5e76e",10,0.42,"Speed","Switch",0.684515081917491,0,"incongruent"
"5b57d2acbc04d60001e5e76e",2,0.29,"Speed","Repeat",-1.28568742658344,1,"congruent"
"5b57d2acbc04d60001e5e76e",1,0.798,"Accuracy","Switch",-1.45687475725022,1,"congruent"
"5b57d2acbc04d60001e5e76e",2,0.615,"Accuracy","Switch",-1.10388382734817,1,"incongruent"
"5b57d2acbc04d60001e5e76e",3,0.801,"Accuracy","Switch",-0.721255814359103,1,"incongruent"
"5b57d2acbc04d60001e5e76e",4,0.645,"Accuracy","Switch",-0.256351719964295,1,"incongruent"
"5b57d2acbc04d60001e5e76e",5,0.806,"Accuracy","Switch",0.139546628735375,1,"congruent"
"5b57d2acbc04d60001e5e76e",6,0.721,"Accuracy","Switch",0.606662445748617,1,"incongruent"
"5b57d2acbc04d60001e5e76e",1,0.424,"Speed","Switch",-1.45687475725022,0,"incongruent"
"5b57d2acbc04d60001e5e76e",4,0.359,"Speed","Switch",-0.84820869265721,1,"incongruent"
"5b57d2acbc04d60001e5e76e",8,0.55,"Speed","Switch",0.0497506904269586,1,"incongruent"
"5b57d2acbc04d60001e5e76e",9,0.261,"Speed","Switch",0.403626309376384,0,"incongruent"
"5b57d2acbc04d60001e5e76e",1,0.699,"Accuracy","Switch",-1.45687475725022,1,"incongruent"
"5b57d2acbc04d60001e5e76e",2,0.586,"Accuracy","Switch",-1.14767593519316,1,"congruent"
"5b57d2acbc04d60001e5e76e",3,0.55,"Accuracy","Switch",-0.777875913391011,1,"congruent"
"5b57d2acbc04d60001e5e76e",4,0.657,"Accuracy","Switch",-0.424000294441585,1,"incongruent"
"5b57d2acbc04d60001e5e76e",5,0.646,"Accuracy","Switch",-0.0227938114576737,1,"incongruent"
"5b57d2acbc04d60001e5e76e",6,0.658,"Accuracy","Switch",0.373546881765683,1,"incongruent"
"5b57d2acbc04d60001e5e76e",7,0.491,"Accuracy","Switch",0.775195709273282,1,"incongruent"
"5b57d2acbc04d60001e5e76e",8,0.474,"Accuracy","Switch",1.10297300132519,1,"congruent"
"5b57d2acbc04d60001e5e76e",9,0.594,"Accuracy","Switch",1.42323043647442,1,"incongruent"
"5b57d2acbc04d60001e5e76e",1,0.66,"Accuracy","Repeat",-1.45687475725022,1,"congruent"
"5b57d2acbc04d60001e5e76e",2,0.748,"Accuracy","Repeat",-1.16492737161695,1,"incongruent"
"5b57d2acbc04d60001e5e76e",3,0.824,"Accuracy","Repeat",-0.723467536977537,1,"congruent"
"5b57d2acbc04d60001e5e76e",4,0.706,"Accuracy","Repeat",-0.248389518537933,1,"incongruent"
"5b57d2acbc04d60001e5e76e",5,0.92,"Accuracy","Repeat",0.174491846106631,1,"incongruent"
"5b57d2acbc04d60001e5e76e",6,0.757,"Accuracy","Repeat",0.692034938820167,1,"incongruent"
"5b57d2acbc04d60001e5e76e",7,0.594,"Accuracy","Repeat",1.13747587417276,1,"congruent"
"5b57d2acbc04d60001e5e76e",8,0.649,"Accuracy","Repeat",1.5108146521644,1,"congruent"
"5b57d2acbc04d60001e5e76e",1,1.185,"Accuracy","Repeat",-1.45687475725022,1,"incongruent"
"5b57d2acbc04d60001e5e76e",2,0.655,"Accuracy","Repeat",-0.932696496681385,1,"congruent"
"5b57d2acbc04d60001e5e76e",3,0.687,"Accuracy","Repeat",-0.532374702744847,1,"incongruent"
"5b57d2acbc04d60001e5e76e",4,0.53,"Accuracy","Repeat",-0.117897884050332,1,"congruent"
"5b57d2acbc04d60001e5e76e",5,0.487,"Accuracy","Repeat",0.227130844425358,1,"congruent"
"5b57d2acbc04d60001e5e76e",6,0.379,"Accuracy","Repeat",0.553138758382517,1,"incongruent"
"5b57d2acbc04d60001e5e76e",7,0.503,"Accuracy","Repeat",0.831373463781503,1,"congruent"
"5b57d2acbc04d60001e5e76e",8,0.417,"Accuracy","Repeat",1.16445889011765,1,"incongruent"
"5b57d2acbc04d60001e5e76e",9,0.413,"Accuracy","Repeat",1.45950268741673,1,"congruent"
"5b57d2acbc04d60001e5e76e",10,0.409,"Accuracy","Repeat",1.75277710662107,0,"incongruent"
"5b57d2acbc04d60001e5e76e",1,0.647,"Accuracy","Repeat",-1.45687475725022,1,"incongruent"
"5b57d2acbc04d60001e5e76e",3,1.675,"Accuracy","Repeat",-0.846439314562462,1,"congruent"
"5b57d2acbc04d60001e5e76e",4,0.709,"Accuracy","Repeat",0.00507389353459359,1,"incongruent"
"5b57d2acbc04d60001e5e76e",5,0.924,"Accuracy","Repeat",0.429282291750218,1,"congruent"
"5b57d2acbc04d60001e5e76e",6,0.709,"Accuracy","Repeat",0.9485947625585,1,"incongruent"
"5b57d2acbc04d60001e5e76e",6,0.323,"Speed","Switch",-0.339954834941097,0,"incongruent"
"5b57d2acbc04d60001e5e76e",10,0.264,"Speed","Switch",0.558889237190445,0,"incongruent"
"5b57d2acbc04d60001e5e76e",13,0.253,"Speed","Switch",1.23390698033647,1,"congruent"
"5b57d2acbc04d60001e5e76e",1,0.791,"Accuracy","Switch",-1.45687475725022,1,"congruent"
"5b57d2acbc04d60001e5e76e",2,0.43,"Accuracy","Switch",-1.10698023901398,1,"incongruent"
"5b57d2acbc04d60001e5e76e",3,0.531,"Accuracy","Switch",-0.806185962906965,1,"congruent"
"5b57d2acbc04d60001e5e76e",4,0.695,"Accuracy","Switch",-0.460714889907588,1,"incongruent"
"5b57d2acbc04d60001e5e76e",5,0.666,"Accuracy","Switch",-0.0426993150235789,1,"congruent"
"5b57d2acbc04d60001e5e76e",6,0.702,"Accuracy","Switch",0.362488268673514,1,"incongruent"
"5b57d2acbc04d60001e5e76e",7,0.711,"Accuracy","Switch",0.78360025522333,1,"incongruent"
"5b57d2acbc04d60001e5e76e",8,0.616,"Accuracy","Switch",1.20869334248633,1,"congruent"
"5b57d2acbc04d60001e5e76e",1,0.398,"Speed","Switch",-1.45687475725022,1,"incongruent"
"5b57d2acbc04d60001e5e76e",9,0.306,"Speed","Switch",0.494749281255862,0,"incongruent"
"5c03217b1a20110001e979f0",1,1.385,"Accuracy","Switch",-1.45687475725022,1,"congruent"
"5c03217b1a20110001e979f0",2,0.685,"Accuracy","Switch",-0.844227591944029,1,"incongruent"
"5c03217b1a20110001e979f0",3,0.416,"Accuracy","Switch",-0.430635462296887,1,"congruent"
"5c03217b1a20110001e979f0",5,0.617,"Accuracy","Switch",0.199263139433091,1,"congruent"
"5c03217b1a20110001e979f0",6,1.036,"Accuracy","Switch",0.582775841469531,1,"incongruent"
"5c03217b1a20110001e979f0",1,0.763,"Speed","Switch",-1.45687475725022,1,"congruent"
"5c03217b1a20110001e979f0",2,1.28,"Speed","Switch",-1.11936588567721,1,"incongruent"
"5c03217b1a20110001e979f0",3,0.553,"Speed","Switch",-0.44257876443643,1,"congruent"
"5c03217b1a20110001e979f0",4,0.664,"Speed","Switch",-0.0873761119159439,1,"incongruent"
"5c03217b1a20110001e979f0",5,0.563,"Speed","Switch",0.316926782733775,1,"congruent"
"5c03217b1a20110001e979f0",6,0.586,"Speed","Switch",0.676552880491129,1,"incongruent"
"5c03217b1a20110001e979f0",7,0.508,"Speed","Switch",1.04635290229328,1,"incongruent"
"5c03217b1a20110001e979f0",8,1.227,"Speed","Switch",1.38165005124786,1,"incongruent"
"5c03217b1a20110001e979f0",9,0.789,"Speed","Switch",2.03499291273324,1,"congruent"
"5c03217b1a20110001e979f0",1,0.769,"Accuracy","Switch",-1.45687475725022,1,"congruent"
"5c03217b1a20110001e979f0",2,0.95,"Accuracy","Switch",-1.11671181853509,0,"incongruent"
"5c03217b1a20110001e979f0",3,0.648,"Accuracy","Switch",-0.585898390110948,1,"congruent"
"5c03217b1a20110001e979f0",4,0.607,"Accuracy","Switch",-0.188673007840217,1,"incongruent"
"5c03217b1a20110001e979f0",5,0.709,"Accuracy","Switch",0.190416248959355,1,"incongruent"
"5c03217b1a20110001e979f0",6,0.629,"Accuracy","Switch",0.61462464717498,1,"incongruent"
"5c03217b1a20110001e979f0",7,0.652,"Accuracy","Switch",1.00344548349566,1,"incongruent"
"5c03217b1a20110001e979f0",1,1.69,"Accuracy","Repeat",-1.45687475725022,0,"incongruent"
"5c03217b1a20110001e979f0",3,0.494,"Accuracy","Repeat",-0.597399347726804,1,"congruent"
"5c03217b1a20110001e979f0",4,0.608,"Accuracy","Repeat",-0.268295022103838,1,"incongruent"
"5c03217b1a20110001e979f0",5,0.655,"Accuracy","Repeat",0.111236579219421,1,"incongruent"
"5c03217b1a20110001e979f0",6,0.506,"Accuracy","Repeat",0.511558373155959,1,"congruent"
"5c03217b1a20110001e979f0",7,0.485,"Accuracy","Repeat",0.845970833063167,1,"incongruent"
"5c03217b1a20110001e979f0",9,0.901,"Accuracy","Repeat",1.52629671049344,1,"incongruent"
"5c03217b1a20110001e979f0",1,1.078,"Speed","Switch",-1.45687475725022,1,"congruent"
"5c03217b1a20110001e979f0",2,0.606,"Speed","Switch",-0.980027360715871,1,"incongruent"
"5c03217b1a20110001e979f0",3,0.688,"Speed","Switch",-0.601380448439985,1,"congruent"
"5c03217b1a20110001e979f0",4,0.476,"Speed","Switch",-0.186461285221783,1,"incongruent"
"5c03217b1a20110001e979f0",5,0.576,"Speed","Switch",0.134680838974821,1,"incongruent"
"5c03217b1a20110001e979f0",6,1.424,"Speed","Switch",0.500057415540103,1,"incongruent"
"5c03217b1a20110001e979f0",2,0.777,"Accuracy","Switch",-1.06053406402687,1,"incongruent"
"5c03217b1a20110001e979f0",3,0.597,"Accuracy","Switch",-0.60624623820054,1,"incongruent"
"5c03217b1a20110001e979f0",4,0.494,"Accuracy","Switch",-0.231580426637835,1,"congruent"
"5c03217b1a20110001e979f0",6,0.699,"Accuracy","Switch",0.497403348397982,1,"incongruent"
"5c03217b1a20110001e979f0",7,0.653,"Accuracy","Switch",0.917188301376739,1,"congruent"
"5c03217b1a20110001e979f0",8,0.607,"Accuracy","Switch",1.3166254062659,1,"incongruent"
"5c03217b1a20110001e979f0",10,1.328,"Accuracy","Switch",2.12036540580479,1,"incongruent"
"5c03217b1a20110001e979f0",1,0.815,"Speed","Switch",-1.45687475725022,1,"congruent"
"5c03217b1a20110001e979f0",2,1.092,"Speed","Switch",-1.09636397044549,1,"incongruent"
"5c03217b1a20110001e979f0",3,0.912,"Speed","Switch",-0.502737619657832,1,"congruent"
"5c03217b1a20110001e979f0",4,0.663,"Speed","Switch",0.0112667168662085,1,"incongruent"
"5c03217b1a20110001e979f0",5,0.888,"Speed","Switch",0.415127266992241,1,"incongruent"
"5c03217b1a20110001e979f0",6,0.574,"Speed","Switch",0.918515334947799,1,"incongruent"
"5c03217b1a20110001e979f0",1,2.245,"Accuracy","Switch",-1.45687475725022,1,"congruent"
"5c03217b1a20110001e979f0",2,0.81,"Accuracy","Switch",-0.463811301573396,1,"incongruent"
"5c03217b1a20110001e979f0",3,0.687,"Accuracy","Switch",0.00507389353459359,1,"incongruent"
"5c03217b1a20110001e979f0",4,0.63,"Accuracy","Switch",0.419550712229109,1,"congruent"
"5c03217b1a20110001e979f0",5,0.575,"Accuracy","Switch",0.808813893073477,1,"congruent"
"5c03217b1a20110001e979f0",1,0.95,"Speed","Switch",-1.45687475725022,1,"congruent"
"5c03217b1a20110001e979f0",2,0.468,"Speed","Switch",-1.03664745974778,1,"incongruent"
"5c03217b1a20110001e979f0",3,0.518,"Speed","Switch",-0.719044091740669,1,"congruent"
"5c03217b1a20110001e979f0",4,0.742,"Speed","Switch",-0.37932349754922,1,"incongruent"
"5c03217b1a20110001e979f0",5,0.855,"Speed","Switch",0.0594822699480678,1,"congruent"
"5c03217b1a20110001e979f0",6,1.428,"Speed","Switch",0.548272968621962,1,"incongruent"
"5c03217b1a20110001e979f0",7,0.788,"Speed","Switch",1.29052707936838,1,"congruent"
"5c03217b1a20110001e979f0",8,0.53,"Speed","Switch",1.74968069495526,1,"incongruent"
"5c03217b1a20110001e979f0",9,0.778,"Speed","Switch",2.09470942343095,1,"congruent"
"5c03217b1a20110001e979f0",1,0.77,"Accuracy","Switch",-1.45687475725022,1,"congruent"
"5c03217b1a20110001e979f0",2,0.728,"Accuracy","Switch",-1.1162694740114,1,"incongruent"
"5c03217b1a20110001e979f0",3,1.507,"Accuracy","Switch",-0.683656529845726,1,"congruent"
"5c03217b1a20110001e979f0",4,0.71,"Accuracy","Switch",0.0935427982719501,1,"incongruent"
"5c03217b1a20110001e979f0",5,0.655,"Accuracy","Switch",0.518193541011261,1,"incongruent"
"5c03217b1a20110001e979f0",6,0.785,"Accuracy","Switch",0.918515334947799,1,"incongruent"
"5c03217b1a20110001e979f0",7,0.574,"Accuracy","Switch",1.37634191696362,1,"congruent"
"5c03217b1a20110001e979f0",1,0.696,"Accuracy","Repeat",-1.45687475725022,1,"congruent"
"5c03217b1a20110001e979f0",2,0.806,"Accuracy","Repeat",-1.14900296876422,1,"incongruent"
"5c03217b1a20110001e979f0",3,0.992,"Accuracy","Repeat",-0.681887151750979,1,"congruent"
"5c03217b1a20110001e979f0",4,0.992,"Accuracy","Repeat",-0.132495253331996,1,"incongruent"
"5c03217b1a20110001e979f0",5,1.246,"Accuracy","Repeat",0.416896645086988,1,"congruent"
"5c03217b1a20110001e979f0",1,1.944,"Speed","Switch",-1.45687475725022,1,"congruent"
"5c03217b1a20110001e979f0",2,0.654,"Speed","Switch",-0.596957003203117,1,"incongruent"
"5c03217b1a20110001e979f0",3,0.688,"Speed","Switch",-0.197077553790266,1,"incongruent"
"5c03217b1a20110001e979f0",4,0.516,"Speed","Switch",0.217841609427936,1,"congruent"
"5c03217b1a20110001e979f0",6,0.575,"Speed","Switch",0.940632561132138,1,"incongruent"
"5c03217b1a20110001e979f0",1,0.73,"Speed","Repeat",-1.45687475725022,1,"congruent"
"5c03217b1a20110001e979f0",2,0.743,"Speed","Repeat",-1.13396325495887,1,"incongruent"
"5c03217b1a20110001e979f0",3,0.519,"Speed","Repeat",-0.694715142937896,1,"congruent"
"5c03217b1a20110001e979f0",4,0.613,"Speed","Repeat",-0.35455220422276,0,"incongruent"
"5c03217b1a20110001e979f0",5,1.075,"Speed","Repeat",0.0271911197189327,1,"incongruent"
"5c03217b1a20110001e979f0",6,0.608,"Speed","Repeat",0.613297613603919,1,"congruent"
"5c03217b1a20110001e979f0",7,0.766,"Speed","Repeat",0.992829214927179,1,"incongruent"
"5c03217b1a20110001e979f0",8,0.538,"Speed","Repeat",1.44225125099295,1,"congruent"
"5c03217b1a20110001e979f0",9,0.721,"Speed","Repeat",1.79081873565813,1,"congruent"
"5c03217b1a20110001e979f0",10,0.495,"Speed","Repeat",2.220335268158,1,"incongruent"
"5c03217b1a20110001e979f0",1,1.043,"Accuracy","Switch",-1.45687475725022,1,"congruent"
"5c03217b1a20110001e979f0",2,0.449,"Accuracy","Switch",-0.995509419044908,1,"incongruent"
"5c03217b1a20110001e979f0",3,0.575,"Accuracy","Switch",-0.686310596987847,1,"congruent"
"5c03217b1a20110001e979f0",4,0.869,"Accuracy","Switch",-0.321376364946252,1,"incongruent"
"5c03217b1a20110001e979f0",5,0.549,"Accuracy","Switch",0.173607157059258,1,"congruent"
"5c03217b1a20110001e979f0",6,0.687,"Accuracy","Switch",0.527040431484997,1,"incongruent"
"5c03217b1a20110001e979f0",7,0.507,"Accuracy","Switch",0.941517250179512,1,"incongruent"
"5c03217b1a20110001e979f0",8,0.362,"Accuracy","Switch",1.27637205461041,1,"incongruent"
"5c03217b1a20110001e979f0",9,0.661,"Accuracy","Switch",1.54708690310672,1,"incongruent"
"5c03217b1a20110001e979f0",1,1.405,"Accuracy","Repeat",-1.45687475725022,1,"congruent"
"5c03217b1a20110001e979f0",2,0.703,"Accuracy","Repeat",-0.835380701470293,0,"incongruent"
"5c03217b1a20110001e979f0",3,0.614,"Accuracy","Repeat",-0.413826370396789,1,"congruent"
"5c03217b1a20110001e979f0",4,0.735,"Accuracy","Repeat",-0.0316407019314093,1,"incongruent"
"5c03217b1a20110001e979f0",5,0.676,"Accuracy","Repeat",0.404068653900071,1,"incongruent"
"5c03217b1a20110001e979f0",6,0.346,"Accuracy","Repeat",0.813679682834032,1,"incongruent"
"5c03217b1a20110001e979f0",7,0.71,"Accuracy","Repeat",1.07731701895135,1,"congruent"
"5c03217b1a20110001e979f0",1,0.796,"Accuracy","Repeat",-1.45687475725022,1,"congruent"
"5c03217b1a20110001e979f0",2,0.82,"Accuracy","Repeat",-1.10476851639554,1,"incongruent"
"5c03217b1a20110001e979f0",3,0.49,"Accuracy","Repeat",-0.631459876050686,1,"incongruent"
"5c03217b1a20110001e979f0",4,0.411,"Accuracy","Repeat",-0.304124928522467,1,"incongruent"
"5c03217b1a20110001e979f0",6,0.479,"Accuracy","Repeat",0.36027654605508,1,"incongruent"
"5c03217b1a20110001e979f0",7,0.608,"Accuracy","Repeat",0.682745703822744,1,"incongruent"
"5c03217b1a20110001e979f0",8,0.471,"Accuracy","Repeat",1.062277305146,1,"congruent"
"5c03217b1a20110001e979f0",9,0.609,"Accuracy","Repeat",1.38120770672417,1,"incongruent"
"5c03217b1a20110001e979f0",10,0.55,"Accuracy","Repeat",1.76118165257112,1,"incongruent"
"5c03217b1a20110001e979f0",1,0.763,"Speed","Switch",-1.45687475725022,1,"incongruent"
"5c03217b1a20110001e979f0",2,0.647,"Speed","Switch",-1.11936588567721,1,"congruent"
"5c03217b1a20110001e979f0",3,1.226,"Speed","Switch",-0.722582847930163,1,"incongruent"
"5c03217b1a20110001e979f0",4,0.888,"Speed","Switch",-0.0696823309684726,1,"incongruent"
"5c03217b1a20110001e979f0",5,0.857,"Speed","Switch",0.433705736987086,1,"congruent"
"5c03217b1a20110001e979f0",6,0.555,"Speed","Switch",0.923381124708354,1,"congruent"
"5c03217b1a20110001e979f0",7,0.559,"Speed","Switch",1.27946846627621,1,"congruent"
"5c03217b1a20110001e979f0",8,0.595,"Speed","Switch",1.63732518593882,1,"incongruent"
"5c03217b1a20110001e979f0",9,0.489,"Speed","Switch",2.01110630845415,1,"incongruent"
"5c03217b1a20110001e979f0",1,0.854,"Speed","Repeat",-1.45687475725022,1,"incongruent"
"5c03217b1a20110001e979f0",2,0.709,"Speed","Repeat",-1.07911253402171,1,"congruent"
"5c03217b1a20110001e979f0",3,0.84,"Speed","Repeat",-0.654904135806086,1,"incongruent"
"5c03217b1a20110001e979f0",4,0.66,"Speed","Repeat",-0.172748604987493,1,"incongruent"
"5c03217b1a20110001e979f0",5,0.517,"Speed","Repeat",0.229784911567479,1,"congruent"
"5c03217b1a20110001e979f0",7,0.615,"Speed","Repeat",0.914976578758305,1,"congruent"
"5c03217b1a20110001e979f0",9,0.686,"Speed","Repeat",1.64174863117569,1,"congruent"
"5c03217b1a20110001e979f0",1,1.1,"Accuracy","Switch",-1.45687475725022,1,"incongruent"
"5c03217b1a20110001e979f0",3,0.667,"Accuracy","Switch",-0.591206524395189,1,"incongruent"
"5c03217b1a20110001e979f0",4,1.642,"Accuracy","Switch",-0.18557659617441,1,"incongruent"
"5c03217b1a20110001e979f0",5,0.451,"Accuracy","Switch",0.651339242640983,1,"congruent"
"5c03217b1a20110001e979f0",6,0.474,"Accuracy","Switch",0.961422753745417,1,"congruent"
"5c03217b1a20110001e979f0",7,0.734,"Accuracy","Switch",1.28168018889465,1,"incongruent"
"5c03217b1a20110001e979f0",8,1.124,"Accuracy","Switch",1.71694720020244,1,"congruent"
"5c03217b1a20110001e979f0",9,0.631,"Accuracy","Switch",2.32472857574808,1,"incongruent"
"5c03217b1a20110001e979f0",1,0.8,"Speed","Switch",-1.45687475725022,1,"congruent"
"5c03217b1a20110001e979f0",2,0.575,"Speed","Switch",-1.1029991383008,1,"incongruent"
"5c03217b1a20110001e979f0",3,0.67,"Speed","Switch",-0.738064906259201,1,"incongruent"
"5c03217b1a20110001e979f0",4,1.312,"Speed","Switch",-0.331107944467361,1,"congruent"
"5c03217b1a20110001e979f0",5,0.743,"Speed","Switch",0.359834201531393,1,"congruent"
"5c03217b1a20110001e979f0",6,0.755,"Speed","Switch",0.799082313552368,0,"incongruent"
"5c03217b1a20110001e979f0",7,0.792,"Speed","Switch",1.24363855985758,1,"congruent"
"5c03217b1a20110001e979f0",1,0.816,"Accuracy","Switch",-1.45687475725022,1,"congruent"
"5c03217b1a20110001e979f0",2,0.495,"Accuracy","Switch",-1.09592162592181,1,"incongruent"
"5c03217b1a20110001e979f0",3,0.687,"Accuracy","Switch",-0.766374955775155,1,"congruent"
"5c03217b1a20110001e979f0",4,0.629,"Accuracy","Switch",-0.35189813708064,1,"incongruent"
"5c03217b1a20110001e979f0",5,0.608,"Accuracy","Switch",0.0369226992400419,1,"congruent"
"5c03217b1a20110001e979f0",6,0.52,"Accuracy","Switch",0.416454300563301,1,"incongruent"
"5c03217b1a20110001e979f0",7,0.56,"Accuracy","Switch",0.757059583802124,1,"congruent"
"5c03217b1a20110001e979f0",8,0.71,"Accuracy","Switch",1.11535864798842,1,"incongruent"
"5c03217b1a20110001e979f0",9,0.454,"Accuracy","Switch",1.54000939072773,1,"congruent"
"5c03217b1a20110001e979f0",10,0.715,"Accuracy","Switch",1.85141993540322,1,"incongruent"
"5c03217b1a20110001e979f0",11,0.547,"Accuracy","Switch",2.27828240076097,1,"incongruent"
"5c03217b1a20110001e979f0",2,0.586,"Accuracy","Repeat",-1.07778550045065,1,"incongruent"
"5c03217b1a20110001e979f0",3,0.576,"Accuracy","Repeat",-0.707985478648499,1,"congruent"
"5c03217b1a20110001e979f0",4,0.63,"Accuracy","Repeat",-0.342608902083217,1,"incongruent"
"5c03217b1a20110001e979f0",5,0.442,"Accuracy","Repeat",0.0466542787611511,1,"incongruent"
"5c03217b1a20110001e979f0",6,0.443,"Accuracy","Repeat",0.352756689152404,1,"incongruent"
"5c03217b1a20110001e979f0",7,0.526,"Accuracy","Repeat",0.659301444067345,1,"congruent"
"5c03217b1a20110001e979f0",8,0.608,"Accuracy","Repeat",1.00256079444829,1,"congruent"
"5c03217b1a20110001e979f0",9,0.834,"Accuracy","Repeat",1.38209239577155,1,"incongruent"
"5c03217b1a20110001e979f0",10,0.666,"Accuracy","Repeat",1.86159385944802,1,"incongruent"
"5c03217b1a20110001e979f0",1,0.681,"Speed","Switch",-1.45687475725022,1,"congruent"
"5c03217b1a20110001e979f0",2,0.634,"Speed","Switch",-1.15563813661952,1,"incongruent"
"5c03217b1a20110001e979f0",4,0.668,"Speed","Switch",-0.367822539933364,1,"incongruent"
"5c03217b1a20110001e979f0",5,0.626,"Speed","Switch",0.0382497328111023,1,"incongruent"
"5c03217b1a20110001e979f0",6,0.632,"Speed","Switch",0.425743535560724,1,"congruent"
"5c03217b1a20110001e979f0",7,0.587,"Speed","Switch",0.815891405452466,1,"incongruent"
"5c03217b1a20110001e979f0",8,0.548,"Speed","Switch",1.1861337717783,1,"incongruent"
"5c03217b1a20110001e979f0",1,0.801,"Accuracy","Switch",-1.45687475725022,1,"incongruent"
"5c03217b1a20110001e979f0",2,0.863,"Accuracy","Switch",-1.10255679377711,1,"congruent"
"5c03217b1a20110001e979f0",3,0.556,"Accuracy","Switch",-0.610227338913721,1,"congruent"
"5c03217b1a20110001e979f0",4,2.013,"Accuracy","Switch",-0.253697652822174,1,"incongruent"
"5c03217b1a20110001e979f0",5,0.505,"Accuracy","Switch",0.747328004281014,1,"congruent"
"5c03217b1a20110001e979f0",6,0.472,"Accuracy","Switch",1.08129811966454,1,"incongruent"
"5c03217b1a20110001e979f0",7,0.524,"Accuracy","Switch",1.40067086576639,1,"congruent"
"5c03217b1a20110001e979f0",1,1.257,"Speed","Switch",-1.45687475725022,1,"congruent"
"5c03217b1a20110001e979f0",2,0.529,"Speed","Switch",-0.900847690975937,1,"incongruent"
"5c03217b1a20110001e979f0",3,0.59,"Speed","Switch",-0.556261307023933,1,"incongruent"
"5c03217b1a20110001e979f0",4,0.676,"Speed","Switch",-0.184691907127036,1,"incongruent"
"5c03217b1a20110001e979f0",5,0.525,"Speed","Switch",0.224919121806924,1,"congruent"
"5c03217b1a20110001e979f0",6,0.517,"Speed","Switch",0.567736127664181,1,"incongruent"
"5c03217b1a20110001e979f0",7,0.438,"Speed","Switch",0.907014377331943,1,"congruent"
"5c03217b1a20110001e979f0",8,0.569,"Speed","Switch",1.21134740962845,1,"congruent"
"5c03217b1a20110001e979f0",9,0.514,"Speed","Switch",1.57362757452792,0,"incongruent"
"5c03217b1a20110001e979f0",1,0.68,"Speed","Repeat",-1.45687475725022,1,"congruent"
"5c03217b1a20110001e979f0",2,0.475,"Speed","Repeat",-1.15608048114321,1,"incongruent"
"5c03217b1a20110001e979f0",3,0.427,"Speed","Repeat",-0.835380701470293,1,"congruent"
"5c03217b1a20110001e979f0",4,0.459,"Speed","Repeat",-0.535913458934341,1,"incongruent"
"5c03217b1a20110001e979f0",5,0.395,"Speed","Repeat",-0.222291191640413,1,"congruent"
"5c03217b1a20110001e979f0",6,0.518,"Speed","Repeat",0.0630210261375621,1,"incongruent"
"5c03217b1a20110001e979f0",7,0.682,"Speed","Repeat",0.402741620329011,1,"congruent"
"5c03217b1a20110001e979f0",8,0.535,"Speed","Repeat",0.815006716405092,1,"incongruent"
"5c03217b1a20110001e979f0",9,0.748,"Speed","Repeat",1.16224716749922,1,"incongruent"
"5c03217b1a20110001e979f0",10,0.593,"Speed","Repeat",1.60370700213862,1,"incongruent"
"5c03217b1a20110001e979f0",1,0.686,"Speed","Repeat",-1.45687475725022,1,"congruent"
"5c03217b1a20110001e979f0",2,0.649,"Speed","Repeat",-1.15342641400109,1,"incongruent"
"5c03217b1a20110001e979f0",3,0.529,"Speed","Repeat",-0.755758687206672,1,"incongruent"
"5c03217b1a20110001e979f0",4,0.405,"Speed","Repeat",-0.411172303254669,1,"congruent"
"5c03217b1a20110001e979f0",5,0.637,"Speed","Repeat",-0.121436640239826,1,"incongruent"
"5c03217b1a20110001e979f0",6,0.56,"Speed","Repeat",0.27092295227035,1,"incongruent"
"5c03217b1a20110001e979f0",7,0.676,"Speed","Repeat",0.629222016456643,1,"incongruent"
"5c03217b1a20110001e979f0",8,0.561,"Speed","Repeat",1.0388330453906,1,"congruent"
"5c03217b1a20110001e979f0",1,0.709,"Speed","Repeat",-1.45687475725022,1,"congruent"
"5c03217b1a20110001e979f0",2,0.728,"Speed","Repeat",-1.14325248995629,1,"incongruent"
"5c03217b1a20110001e979f0",3,0.733,"Speed","Repeat",-0.71063954579062,1,"incongruent"
"5c03217b1a20110001e979f0",4,0.767,"Speed","Repeat",-0.275814879006513,1,"congruent"
"5c03217b1a20110001e979f0",5,0.608,"Speed","Repeat",0.174049501582944,1,"incongruent"
"5c03217b1a20110001e979f0",6,0.451,"Speed","Repeat",0.553581102906204,1,"congruent"
"5c03217b1a20110001e979f0",7,0.496,"Speed","Repeat",0.863664614010638,1,"congruent"
"5c03217b1a20110001e979f0",8,0.45,"Speed","Repeat",1.19365362868098,1,"incongruent"
"5c03217b1a20110001e979f0",9,0.564,"Speed","Repeat",1.50329479526173,1,"congruent"
"5c03217b1a20110001e979f0",10,0.406,"Speed","Repeat",1.86336323754277,1,"incongruent"
"5c03217b1a20110001e979f0",1,0.62,"Accuracy","Switch",-1.45687475725022,1,"incongruent"
"5c03217b1a20110001e979f0",2,0.676,"Accuracy","Switch",-1.18262115256442,1,"congruent"
"5c03217b1a20110001e979f0",3,0.577,"Accuracy","Switch",-0.773010123630457,1,"incongruent"
"5c03217b1a20110001e979f0",5,0.784,"Accuracy","Switch",-0.0657012302552916,1,"incongruent"
"5c03217b1a20110001e979f0",6,0.532,"Accuracy","Switch",0.391683007236841,1,"incongruent"
"5c03217b1a20110001e979f0",7,0.629,"Accuracy","Switch",0.737596424759905,1,"congruent"
"5c03217b1a20110001e979f0",8,0.708,"Accuracy","Switch",1.12641726108059,0,"incongruent"
"5c03217b1a20110001e979f0",1,0.777,"Accuracy","Repeat",-1.45687475725022,1,"incongruent"
"5c03217b1a20110001e979f0",2,0.574,"Accuracy","Repeat",-1.11317306234559,1,"congruent"
"5c03217b1a20110001e979f0",3,0.507,"Accuracy","Repeat",-0.748681174827683,1,"incongruent"
"5c03217b1a20110001e979f0",4,0.608,"Accuracy","Repeat",-0.413826370396789,1,"incongruent"
"5c03217b1a20110001e979f0",5,0.45,"Accuracy","Repeat",-0.03429476907353,1,"congruent"
"5c03217b1a20110001e979f0",6,0.573,"Accuracy","Repeat",0.275346397507218,1,"incongruent"
"5c03217b1a20110001e979f0",7,0.642,"Accuracy","Repeat",0.639395940501439,1,"incongruent"
"5c03217b1a20110001e979f0",1,0.867,"Speed","Switch",-1.45687475725022,1,"incongruent"
"5c03217b1a20110001e979f0",7,0.619,"Speed","Switch",0.581448807898471,1,"congruent"
"5c03217b1a20110001e979f0",8,1.142,"Speed","Switch",0.965846198982285,1,"incongruent"
"5c03217b1a20110001e979f0",1,0.751,"Accuracy","Switch",-1.45687475725022,1,"congruent"
"5c03217b1a20110001e979f0",2,0.575,"Accuracy","Switch",-1.12467401996145,1,"incongruent"
"5c03217b1a20110001e979f0",3,0.541,"Accuracy","Switch",-0.759739787919853,1,"congruent"
"5c03217b1a20110001e979f0",4,0.57,"Accuracy","Switch",-0.409845269683608,1,"incongruent"
"5c03217b1a20110001e979f0",5,0.654,"Accuracy","Switch",-0.0471227602604467,1,"incongruent"
"5c03217b1a20110001e979f0",6,0.587,"Accuracy","Switch",0.352756689152404,1,"congruent"
"5c03217b1a20110001e979f0",7,0.831,"Accuracy","Switch",0.722999055478241,1,"incongruent"
"5c03217b1a20110001e979f0",10,0.489,"Accuracy","Switch",1.91113644610094,1,"congruent"
"5c03217b1a20110001e979f0",1,1.11,"Speed","Switch",-1.45687475725022,1,"incongruent"
"5c03217b1a20110001e979f0",2,0.537,"Speed","Switch",-0.965872335957894,1,"congruent"
"5c03217b1a20110001e979f0",3,0.575,"Speed","Switch",-0.617747195816396,1,"incongruent"
"5c03217b1a20110001e979f0",4,0.547,"Speed","Switch",-0.252812963774801,1,"congruent"
"5c03217b1a20110001e979f0",5,0.689,"Speed","Switch",0.099735621603565,1,"incongruent"
"5c03217b1a20110001e979f0",6,0.582,"Speed","Switch",0.515097129345454,1,"congruent"
"5c03217b1a20110001e979f0",7,0.553,"Speed","Switch",0.883127773052857,1,"incongruent"
"5c03217b1a20110001e979f0",8,1.159,"Speed","Switch",1.23833042557334,1,"incongruent"
"5c03217b1a20110001e979f0",9,0.642,"Speed","Switch",1.86159385944802,1,"congruent"
"5c03217b1a20110001e979f0",1,0.938,"Accuracy","Switch",-1.45687475725022,1,"congruent"
"5c03217b1a20110001e979f0",2,0.858,"Accuracy","Switch",-1.04195559403202,1,"incongruent"
"5c03217b1a20110001e979f0",3,0.992,"Accuracy","Switch",-0.551837861787065,1,"congruent"
"5c03217b1a20110001e979f0",4,1.648,"Accuracy","Switch",-0.00244596336808171,1,"incongruent"
"5c03217b1a20110001e979f0",5,0.576,"Accuracy","Switch",0.837123942589431,1,"incongruent"
"5c03217b1a20110001e979f0",6,0.765,"Accuracy","Switch",1.20250051915471,1,"congruent"
"5c03217b1a20110001e979f0",1,1.124,"Accuracy","Repeat",-1.45687475725022,1,"incongruent"
"5c03217b1a20110001e979f0",4,0.81,"Accuracy","Repeat",-0.235561527351016,1,"incongruent"
"5c03217b1a20110001e979f0",5,1.049,"Accuracy","Repeat",0.233323667756973,1,"congruent"
"5c03217b1a20110001e979f0",6,0.549,"Accuracy","Repeat",0.807929204026103,1,"incongruent"
"5c03217b1a20110001e979f0",1,1.672,"Speed","Switch",-1.45687475725022,1,"congruent"
"5c03217b1a20110001e979f0",2,1.704,"Speed","Switch",-0.717274713645922,1,"incongruent"
"5c03217b1a20110001e979f0",3,0.762,"Speed","Switch",0.147066485638051,1,"incongruent"
"5c03217b1a20110001e979f0",4,0.555,"Speed","Switch",0.594719143609074,1,"congruent"
"5c03217b1a20110001e979f0",5,0.584,"Speed","Switch",0.950806485176934,1,"congruent"
"5c03217b1a20110001e979f0",6,0.519,"Speed","Switch",1.31972181793171,1,"incongruent"
"5c03217b1a20110001e979f0",8,0.642,"Speed","Switch",1.98368094798557,1,"congruent"
"5c03217b1a20110001e979f0",9,0.553,"Speed","Switch",2.37825226311418,1,"congruent"
"5c03217b1a20110001e979f0",1,1.562,"Speed","Repeat",-1.45687475725022,1,"incongruent"
"5c03217b1a20110001e979f0",2,0.551,"Speed","Repeat",-0.765932611251468,1,"congruent"
"5c03217b1a20110001e979f0",3,0.698,"Speed","Repeat",-0.411614647778355,1,"congruent"
"5c03217b1a20110001e979f0",4,0.463,"Speed","Repeat",0.00772796067671428,1,"incongruent"
"5c03217b1a20110001e979f0",5,0.686,"Speed","Repeat",0.32311960606539,1,"congruent"
"5c03217b1a20110001e979f0",6,0.496,"Speed","Repeat",0.737154080236218,1,"incongruent"
"5c03217b1a20110001e979f0",7,0.585,"Speed","Repeat",1.06714309490656,1,"congruent"
"5c03217b1a20110001e979f0",1,2.365,"Accuracy","Switch",-1.45687475725022,1,"incongruent"
"5c03217b1a20110001e979f0",2,0.522,"Accuracy","Switch",-0.410729958730982,1,"congruent"
"5c03217b1a20110001e979f0",3,0.559,"Accuracy","Switch",-0.0692399864447858,1,"congruent"
"5c03217b1a20110001e979f0",4,0.551,"Accuracy","Switch",0.288616733217821,1,"incongruent"
"5c03217b1a20110001e979f0",5,0.533,"Accuracy","Switch",0.642934696690934,1,"incongruent"
"5c03217b1a20110001e979f0",6,0.61,"Accuracy","Switch",0.989290458737684,1,"incongruent"
"5c03217b1a20110001e979f0",7,0.502,"Accuracy","Switch",1.36970674910832,1,"congruent"
"5c03217b1a20110001e979f0",8,0.416,"Accuracy","Switch",1.70234983092078,1,"incongruent"
"5c03217b1a20110001e979f0",9,0.542,"Accuracy","Switch",1.99695128369617,1,"incongruent"
"5c03217b1a20110001e979f0",10,0.55,"Accuracy","Switch",2.34728814645611,1,"congruent"
"5c03217b1a20110001e979f0",1,1.637,"Speed","Switch",-1.45687475725022,1,"incongruent"
"5c03217b1a20110001e979f0",2,0.622,"Speed","Switch",-0.732756771974959,1,"congruent"
"5c03217b1a20110001e979f0",3,0.618,"Speed","Switch",-0.347032347320085,1,"incongruent"
"5c03217b1a20110001e979f0",4,0.427,"Speed","Switch",0.0369226992400419,1,"incongruent"
"5c03217b1a20110001e979f0",5,0.518,"Speed","Switch",0.336389941775994,1,"congruent"
"5c03217b1a20110001e979f0",6,0.54,"Speed","Switch",0.676110535967442,1,"congruent"
"5c03217b1a20110001e979f0",2,0.622,"Speed","Repeat",-0.766817300298842,1,"incongruent"
"5c03217b1a20110001e979f0",3,0.829,"Speed","Repeat",-0.381092875643967,1,"incongruent"
"5c03217b1a20110001e979f0",4,0.621,"Speed","Repeat",0.0961968654140707,1,"congruent"
"5c03217b1a20110001e979f0",5,0.385,"Speed","Repeat",0.481478945545258,1,"incongruent"
"5c03217b1a20110001e979f0",6,0.789,"Speed","Repeat",0.762367718086365,1,"incongruent"
"5c03217b1a20110001e979f0",7,0.473,"Speed","Repeat",1.22196367819693,1,"congruent"
"5c03217b1a20110001e979f0",8,0.409,"Speed","Repeat",1.54177876882248,1,"incongruent"
"5c03217b1a20110001e979f0",5,1.069,"Accuracy","Switch",-0.419576849204717,1,"congruent"
"5c03217b1a20110001e979f0",6,1.075,"Accuracy","Switch",0.163875577538148,1,"incongruent"
"5c03217b1a20110001e979f0",7,0.606,"Accuracy","Switch",0.749982071423135,1,"congruent"
"5c03217b1a20110001e979f0",8,0.575,"Accuracy","Switch",1.12862898369902,1,"congruent"
"5c03217b1a20110001e979f0",1,0.825,"Accuracy","Repeat",-1.45687475725022,1,"incongruent"
"5c03217b1a20110001e979f0",3,0.63,"Accuracy","Repeat",-0.439482352770623,1,"congruent"
"5c03217b1a20110001e979f0",4,1.082,"Accuracy","Repeat",-0.0502191719262542,1,"incongruent"
"5c03217b1a20110001e979f0",5,0.5,"Accuracy","Repeat",0.53898373362454,1,"incongruent"
"5c03217b1a20110001e979f0",6,0.548,"Accuracy","Repeat",0.870742126389627,1,"congruent"
"5c03217b1a20110001e979f0",7,0.642,"Accuracy","Repeat",1.22373305629168,1,"incongruent"
"5c03217b1a20110001e979f0",8,0.754,"Accuracy","Repeat",1.61830437142029,1,"congruent"
"5c03217b1a20110001e979f0",9,0.657,"Accuracy","Repeat",2.06241827320182,1,"incongruent"
"5c03217b1a20110001e979f0",1,2.201,"Speed","Switch",-1.45687475725022,1,"incongruent"
"5c03217b1a20110001e979f0",2,0.573,"Speed","Switch",-0.483274460615614,1,"congruent"
"5c03217b1a20110001e979f0",3,0.608,"Speed","Switch",-0.119224917621392,1,"incongruent"
"5c03217b1a20110001e979f0",4,0.507,"Speed","Switch",0.260306683701867,1,"incongruent"
"5c03217b1a20110001e979f0",5,0.474,"Speed","Switch",0.595161488132761,1,"congruent"
"5c03217b1a20110001e979f0",6,0.576,"Speed","Switch",0.915418923281992,1,"incongruent"
"5c03217b1a20110001e979f0",1,0.805,"Speed","Repeat",-1.45687475725022,1,"incongruent"
"5c03217b1a20110001e979f0",4,0.56,"Speed","Repeat",-0.594302936060996,1,"incongruent"
"5c03217b1a20110001e979f0",5,0.642,"Speed","Repeat",-0.236003871874703,1,"incongruent"
"5c03217b1a20110001e979f0",6,0.575,"Speed","Repeat",0.158567443253907,1,"incongruent"
"5c03217b1a20110001e979f0",7,0.597,"Speed","Repeat",0.523501675295503,1,"incongruent"
"5c03217b1a20110001e979f0",8,0.506,"Speed","Repeat",0.898167486858207,1,"congruent"
"5c03217b1a20110001e979f0",9,0.69,"Speed","Repeat",1.23257994676541,1,"incongruent"
"5c03217b1a20110001e979f0",1,1.905,"Accuracy","Switch",-1.45687475725022,1,"congruent"
"5c03217b1a20110001e979f0",2,0.575,"Accuracy","Switch",-0.614208439626902,1,"incongruent"
"5c03217b1a20110001e979f0",3,0.561,"Accuracy","Switch",-0.249274207585306,1,"incongruent"
"5c03217b1a20110001e979f0",4,0.528,"Accuracy","Switch",0.109467201124674,1,"congruent"
"5c03217b1a20110001e979f0",1,0.84,"Speed","Switch",-1.45687475725022,1,"congruent"
"5c03217b1a20110001e979f0",2,0.843,"Speed","Switch",-1.08530535735332,1,"incongruent"
"5c03217b1a20110001e979f0",3,0.55,"Speed","Switch",-0.601822792963672,1,"congruent"
"5c03217b1a20110001e979f0",5,1.041,"Speed","Switch",0.191300938006729,1,"congruent"
"5c03217b1a20110001e979f0",7,0.62,"Speed","Switch",1.11491630346473,1,"congruent"
"5c03217b1a20110001e979f0",8,0.598,"Speed","Switch",1.49975603907223,1,"incongruent"
"5c03217b1a20110001e979f0",9,0.825,"Speed","Switch",1.87486419515862,1,"incongruent"
"5c03217b1a20110001e979f0",10,0.556,"Speed","Switch",2.35038455812191,1,"incongruent"
"5c03217b1a20110001e979f0",1,0.993,"Accuracy","Switch",-1.45687475725022,1,"congruent"
"5c03217b1a20110001e979f0",2,1.011,"Accuracy","Switch",-1.01762664522925,1,"incongruent"
"5c03217b1a20110001e979f0",3,0.835,"Accuracy","Switch",-0.459830200860215,1,"incongruent"
"5c03217b1a20110001e979f0",4,0.395,"Accuracy","Switch",0.0201136073399442,1,"incongruent"
"5c03217b1a20110001e979f0",6,0.696,"Accuracy","Switch",0.585429908611652,1,"incongruent"
"5c03217b1a20110001e979f0",7,0.609,"Accuracy","Switch",1.00388782801935,1,"congruent"
"5c03217b1a20110001e979f0",8,0.527,"Accuracy","Switch",1.38386177386629,1,"congruent"
"5c03217b1a20110001e979f0",9,0.55,"Accuracy","Switch",1.72756346877092,1,"incongruent"
"5c03217b1a20110001e979f0",1,1.274,"Speed","Switch",-1.45687475725022,1,"congruent"
"5c03217b1a20110001e979f0",2,0.809,"Speed","Switch",-0.893327834073261,1,"incongruent"
"5c03217b1a20110001e979f0",3,0.845,"Speed","Switch",-0.424884983488959,1,"incongruent"
"5c03217b1a20110001e979f0",4,0.904,"Speed","Switch",0.0594822699480678,1,"incongruent"
"5c03217b1a20110001e979f0",5,0.769,"Speed","Switch",0.569947850282615,1,"congruent"
"5c03217b1a20110001e979f0",6,0.748,"Speed","Switch",1.02069691991945,1,"congruent"
"5c03217b1a20110001e979f0",7,0.492,"Speed","Switch",1.46215675455885,0,"incongruent"
"5c03217b1a20110001e979f0",8,0.583,"Speed","Switch",1.79037639113445,1,"congruent"
"5c03217b1a20110001e979f0",9,0.501,"Speed","Switch",2.15884937936554,1,"incongruent"
"5c03217b1a20110001e979f0",1,1.451,"Speed","Repeat",-1.45687475725022,1,"congruent"
"5c03217b1a20110001e979f0",2,2.164,"Speed","Repeat",-0.815032853380701,1,"incongruent"
"5c03217b1a20110001e979f0",4,0.789,"Speed","Repeat",0.696016039533348,1,"incongruent"
"5c03217b1a20110001e979f0",5,0.557,"Speed","Repeat",1.15561199964391,1,"congruent"
"5c03217b1a20110001e979f0",6,0.561,"Speed","Repeat",1.51258403025915,1,"incongruent"
"5c03217b1a20110001e979f0",7,0.523,"Speed","Repeat",1.87132543896913,1,"incongruent"
"5c03217b1a20110001e979f0",8,0.479,"Speed","Repeat",2.21325775577901,1,"congruent"
"5c03217b1a20110001e979f0",9,0.653,"Speed","Repeat",2.53572691354668,1,"incongruent"
"5c03217b1a20110001e979f0",1,1.163,"Speed","Repeat",-1.45687475725022,1,"congruent"
"5c03217b1a20110001e979f0",2,0.793,"Speed","Repeat",-0.942428076202494,1,"incongruent"
"5c03217b1a20110001e979f0",3,0.488,"Speed","Repeat",-0.48106273799718,1,"congruent"
"5c03217b1a20110001e979f0",4,0.659,"Speed","Repeat",-0.154612479516335,0,"incongruent"
"5c03217b1a20110001e979f0",5,0.509,"Speed","Repeat",0.24747869251495,1,"congruent"
"5c03217b1a20110001e979f0",6,0.586,"Speed","Repeat",0.583218185993218,1,"incongruent"
"5c03217b1a20110001e979f0",7,0.967,"Speed","Repeat",0.953018207795368,1,"incongruent"
"5c03217b1a20110001e979f0",2,0.608,"Speed","Repeat",-1.09636397044549,1,"congruent"
"5c03217b1a20110001e979f0",3,0.952,"Speed","Repeat",-0.716832369122235,1,"incongruent"
"5c03217b1a20110001e979f0",4,1.166,"Speed","Repeat",-0.185134251650723,1,"congruent"
"5c03217b1a20110001e979f0",5,0.788,"Speed","Repeat",0.441225593889761,1,"incongruent"
"5c03217b1a20110001e979f0",6,1.454,"Speed","Repeat",0.900379209476641,1,"incongruent"
"5c03217b1a20110001e979f0",7,1.033,"Speed","Repeat",1.65413427783892,1,"incongruent"
"5c03217b1a20110001e979f0",1,1.318,"Accuracy","Switch",-1.45687475725022,1,"congruent"
"5c03217b1a20110001e979f0",2,1.171,"Accuracy","Switch",-0.873864675031043,1,"incongruent"
"5c03217b1a20110001e979f0",3,0.59,"Accuracy","Switch",-0.245293106872125,1,"congruent"
"5c03217b1a20110001e979f0",4,0.761,"Accuracy","Switch",0.126276293024772,1,"incongruent"
"5c03217b1a20110001e979f0",5,0.417,"Accuracy","Switch",0.573486606472109,1,"incongruent"
"5c03217b1a20110001e979f0",7,0.762,"Accuracy","Switch",1.21488616581794,1,"incongruent"
"5c03217b1a20110001e979f0",8,0.524,"Accuracy","Switch",1.66253882378897,1,"congruent"
"5c03217b1a20110001e979f0",1,0.771,"Accuracy","Repeat",-1.45687475725022,1,"congruent"
"5c03217b1a20110001e979f0",2,2.409,"Accuracy","Repeat",-1.11582712948771,1,"incongruent"
"5c03217b1a20110001e979f0",3,0.573,"Accuracy","Repeat",0.0603669589954414,1,"congruent"
"5c03217b1a20110001e979f0",4,0.89,"Accuracy","Repeat",0.424416501989663,1,"incongruent"
"5c03217b1a20110001e979f0",5,0.449,"Accuracy","Repeat",0.928689258992595,1,"congruent"
"5c03217b1a20110001e979f0",6,1.171,"Accuracy","Repeat",1.23788808104966,1,"incongruent"
"5c03217b1a20110001e979f0",1,1.145,"Speed","Switch",-1.45687475725022,1,"incongruent"
"5c03217b1a20110001e979f0",2,0.608,"Speed","Switch",-0.950390277628856,1,"congruent"
"5c03217b1a20110001e979f0",3,0.595,"Speed","Switch",-0.570858676305597,1,"congruent"
"5c03217b1a20110001e979f0",6,0.876,"Speed","Switch",0.538099044577166,1,"incongruent"
"5c03217b1a20110001e979f0",1,0.905,"Speed","Repeat",-1.45687475725022,1,"incongruent"
"5c03217b1a20110001e979f0",2,1.043,"Speed","Repeat",-1.05655296331368,1,"congruent"
"5c03217b1a20110001e979f0",3,0.555,"Speed","Repeat",-0.484601494186674,1,"congruent"
"5c03217b1a20110001e979f0",4,0.568,"Speed","Repeat",-0.128514152618815,1,"incongruent"
"5c03217b1a20110001e979f0",5,0.466,"Speed","Repeat",0.233323667756973,1,"congruent"
"5c03217b1a20110001e979f0",6,0.547,"Speed","Repeat",0.550042346716709,1,"incongruent"
"5c03217b1a20110001e979f0",7,1.106,"Speed","Repeat",0.902590932095075,1,"incongruent"
"5c03217b1a20110001e979f0",1,0.777,"Accuracy","Switch",-1.45687475725022,1,"congruent"
"5c03217b1a20110001e979f0",2,0.817,"Accuracy","Switch",-1.11317306234559,1,"incongruent"
"5c03217b1a20110001e979f0",3,0.417,"Accuracy","Switch",-0.641191455571795,1,"congruent"
"5c03217b1a20110001e979f0",4,0.531,"Accuracy","Switch",-0.346147658272712,1,"incongruent"
"5c03217b1a20110001e979f0",5,0.455,"Accuracy","Switch",-0.000676585273334583,1,"congruent"
"5c03217b1a20110001e979f0",6,0.548,"Accuracy","Switch",0.311176303925847,1,"incongruent"
"5c03217b1a20110001e979f0",7,0.664,"Accuracy","Switch",0.664167233827899,1,"incongruent"
"5c03217b1a20110001e979f0",8,0.968,"Accuracy","Switch",1.06847012847762,1,"incongruent"
"5c03217b1a20110001e979f0",9,0.597,"Accuracy","Switch",1.60724575832812,1,"congruent"
"5c03217b1a20110001e979f0",1,1.946,"Accuracy","Repeat",-1.45687475725022,1,"congruent"
"5c03217b1a20110001e979f0",2,1.244,"Accuracy","Repeat",-0.596072314155744,1,"incongruent"
"5c03217b1a20110001e979f0",3,0.707,"Accuracy","Repeat",0.0647904042323092,1,"incongruent"
"5c03217b1a20110001e979f0",4,1.171,"Accuracy","Repeat",0.48811411340056,1,"incongruent"
"5c03217b1a20110001e979f0",5,0.63,"Accuracy","Repeat",1.11668568155948,1,"congruent"
"5c03217b1a20110001e979f0",6,0.556,"Accuracy","Repeat",1.50594886240385,1,"incongruent"
"5c03217b1a20110001e979f0",7,0.606,"Accuracy","Repeat",1.86247854849539,1,"incongruent"
"5c03217b1a20110001e979f0",1,1.077,"Accuracy","Repeat",-1.45687475725022,1,"congruent"
"5c03217b1a20110001e979f0",2,1.137,"Accuracy","Repeat",-0.980469705239557,1,"incongruent"
"5c03217b1a20110001e979f0",3,0.792,"Accuracy","Repeat",-0.36693785088599,1,"congruent"
"5c03217b1a20110001e979f0",4,0.551,"Accuracy","Repeat",0.0939851427956368,1,"incongruent"
"5c03217b1a20110001e979f0",7,0.903,"Accuracy","Repeat",1.37722660601099,1,"incongruent"
"5c0c2dcbecc4e70001aca036",1,0.638,"Speed","Repeat",-1.45687475725022,1,"congruent"
"5c0c2dcbecc4e70001aca036",2,1.006,"Speed","Repeat",-1.17465895113805,1,"incongruent"
"5c0c2dcbecc4e70001aca036",3,1.109,"Speed","Repeat",-0.619074229387456,1,"congruent"
"5c0c2dcbecc4e70001aca036",4,0.817,"Speed","Repeat",-0.0179280216971191,1,"incongruent"
"5c0c2dcbecc4e70001aca036",5,0.793,"Speed","Repeat",0.454053585076678,1,"incongruent"
"5c0c2dcbecc4e70001aca036",1,1.645,"Accuracy","Switch",-1.45687475725022,0,"incongruent"
"5c0c2dcbecc4e70001aca036",2,0.591,"Accuracy","Switch",-0.729218015785465,1,"congruent"
"5c0c2dcbecc4e70001aca036",3,0.809,"Accuracy","Switch",-0.357206271364881,1,"incongruent"
"5c0c2dcbecc4e70001aca036",4,0.721,"Accuracy","Switch",0.111236579219421,0,"incongruent"
"5c0c2dcbecc4e70001aca036",5,0.714,"Accuracy","Switch",0.540753111719287,1,"congruent"
"5c0c2dcbecc4e70001aca036",7,1.508,"Accuracy","Switch",1.56124192786469,1,"congruent"
"5c0c2dcbecc4e70001aca036",8,0.691,"Accuracy","Switch",2.33888360050606,1,"incongruent"
"5c0c2dcbecc4e70001aca036",1,0.873,"Speed","Switch",-1.45687475725022,1,"incongruent"
"5c0c2dcbecc4e70001aca036",2,1.009,"Speed","Switch",-1.07070798807166,1,"congruent"
"5c0c2dcbecc4e70001aca036",3,1.207,"Speed","Switch",-0.513796232750002,1,"incongruent"
"5c0c2dcbecc4e70001aca036",4,1.483,"Speed","Switch",0.13069973826164,1,"congruent"
"5c0c2dcbecc4e70001aca036",1,2.23,"Accuracy","Switch",-1.45687475725022,1,"congruent"
"5c0c2dcbecc4e70001aca036",2,0.68,"Accuracy","Switch",-0.470446469428697,1,"incongruent"
"5c0c2dcbecc4e70001aca036",3,1.317,"Accuracy","Switch",-0.0590660623999898,1,"incongruent"
"5c0c2dcbecc4e70001aca036",4,0.563,"Accuracy","Switch",0.634087806217198,1,"congruent"
"5c0c2dcbecc4e70001aca036",5,0.772,"Accuracy","Switch",0.993713903974552,1,"congruent"
"5c0c2dcbecc4e70001aca036",6,1.299,"Accuracy","Switch",1.44579000718244,1,"incongruent"
"5c0c2dcbecc4e70001aca036",7,0.94,"Accuracy","Switch",2.13098167437327,1,"incongruent"
"5c0c2dcbecc4e70001aca036",2,0.709,"Accuracy","Repeat",0.11831409159841,1,"congruent"
"5c0c2dcbecc4e70001aca036",3,0.667,"Accuracy","Repeat",0.542522489814034,1,"congruent"
"5c0c2dcbecc4e70001aca036",4,0.639,"Accuracy","Repeat",0.948152418034814,1,"incongruent"
"5c0c2dcbecc4e70001aca036",5,0.77,"Accuracy","Repeat",1.34139669959236,1,"incongruent"
"5c0c2dcbecc4e70001aca036",6,0.863,"Accuracy","Repeat",1.79258811375288,1,"incongruent"
"5c0c2dcbecc4e70001aca036",1,0.689,"Speed","Switch",-1.45687475725022,0,"incongruent"
"5c0c2dcbecc4e70001aca036",2,0.582,"Speed","Switch",-1.15209938043003,1,"congruent"
"5c0c2dcbecc4e70001aca036",3,0.789,"Speed","Switch",-0.784068736722626,1,"incongruent"
"5c0c2dcbecc4e70001aca036",4,0.532,"Speed","Switch",-0.324472776612059,1,"congruent"
"5c0c2dcbecc4e70001aca036",5,1.238,"Speed","Switch",0.0214406409110045,1,"congruent"
"5c0c2dcbecc4e70001aca036",6,0.689,"Speed","Switch",0.679649292156937,1,"incongruent"
"5c0c2dcbecc4e70001aca036",7,0.592,"Speed","Switch",1.09501079989883,1,"incongruent"
"5c0c2dcbecc4e70001aca036",8,1.22,"Speed","Switch",1.4674648888431,1,"incongruent"
"5c0c2dcbecc4e70001aca036",9,0.455,"Speed","Switch",2.11771133866267,1,"congruent"
"5c0c2dcbecc4e70001aca036",1,0.964,"Accuracy","Switch",-1.45687475725022,1,"congruent"
"5c0c2dcbecc4e70001aca036",3,0.589,"Accuracy","Switch",-0.649153656998158,1,"incongruent"
"5c0c2dcbecc4e70001aca036",4,0.603,"Accuracy","Switch",-0.278026601624947,1,"congruent"
"5c0c2dcbecc4e70001aca036",5,0.72,"Accuracy","Switch",0.0992932770798782,1,"incongruent"
"5c0c2dcbecc4e70001aca036",6,0.706,"Accuracy","Switch",0.528367465056057,1,"incongruent"
"5c0c2dcbecc4e70001aca036",7,0.723,"Accuracy","Switch",0.951248829700621,1,"congruent"
"5c0c2dcbecc4e70001aca036",1,1.052,"Accuracy","Repeat",-1.45687475725022,1,"congruent"
"5c0c2dcbecc4e70001aca036",2,0.561,"Accuracy","Repeat",-0.991528318331727,1,"incongruent"
"5c0c2dcbecc4e70001aca036",3,0.72,"Accuracy","Repeat",-0.632786909621747,1,"incongruent"
"5c0c2dcbecc4e70001aca036",4,0.796,"Accuracy","Repeat",-0.203712721645568,1,"incongruent"
"5c0c2dcbecc4e70001aca036",5,2.154,"Accuracy","Repeat",0.258979650130807,1,"congruent"
"5c0c2dcbecc4e70001aca036",1,1.456,"Speed","Switch",-1.45687475725022,1,"congruent"
"5c0c2dcbecc4e70001aca036",2,0.482,"Speed","Switch",-0.812821130762267,0,"incongruent"
"5c0c2dcbecc4e70001aca036",3,1.469,"Speed","Switch",-0.489024939423542,1,"incongruent"
"5c0c2dcbecc4e70001aca036",4,0.688,"Speed","Switch",0.271365296794037,1,"congruent"
"5c0c2dcbecc4e70001aca036",5,0.658,"Speed","Switch",0.686284460012238,1,"congruent"
"5c0c2dcbecc4e70001aca036",6,0.726,"Speed","Switch",1.08793328751984,1,"incongruent"
"5c0c2dcbecc4e70001aca036",1,2.343,"Speed","Repeat",-1.45687475725022,1,"congruent"
"5c0c2dcbecc4e70001aca036",3,1.293,"Speed","Repeat",0.0444425561427172,1,"incongruent"
"5c0c2dcbecc4e70001aca036",4,0.629,"Speed","Repeat",0.726980156191422,1,"congruent"
"5c0c2dcbecc4e70001aca036",5,1.599,"Speed","Repeat",1.1158009925121,0,"incongruent"
"5c0c2dcbecc4e70001aca036",2,0.712,"Accuracy","Switch",-0.779202946962071,1,"incongruent"
"5c0c2dcbecc4e70001aca036",3,0.879,"Accuracy","Switch",-0.353667515175387,1,"congruent"
"5c0c2dcbecc4e70001aca036",5,1.402,"Accuracy","Switch",0.517751196487574,1,"congruent"
"5c0c2dcbecc4e70001aca036",6,0.628,"Accuracy","Switch",1.24850434961814,0,"incongruent"
"5c0c2dcbecc4e70001aca036",2,0.701,"Accuracy","Repeat",-0.0670282638263519,1,"congruent"
"5c0c2dcbecc4e70001aca036",3,0.597,"Accuracy","Repeat",0.353641378199778,1,"congruent"
"5c0c2dcbecc4e70001aca036",4,0.483,"Accuracy","Repeat",0.728307189762483,1,"incongruent"
"5c0c2dcbecc4e70001aca036",5,0.642,"Accuracy","Repeat",1.05254572562489,1,"incongruent"
"5c0c2dcbecc4e70001aca036",1,1.227,"Speed","Switch",-1.45687475725022,1,"incongruent"
"5c0c2dcbecc4e70001aca036",2,0.758,"Speed","Switch",-0.91411802668654,1,"congruent"
"5c0c2dcbecc4e70001aca036",3,1.301,"Speed","Switch",-0.468234746810264,1,"congruent"
"5c0c2dcbecc4e70001aca036",4,0.688,"Speed","Switch",0.217841609427936,1,"incongruent"
"5c0c2dcbecc4e70001aca036",5,0.534,"Speed","Switch",0.632760772646138,1,"incongruent"
"5c0c2dcbecc4e70001aca036",7,0.835,"Speed","Switch",1.3400696660213,1,"incongruent"
"5c0c2dcbecc4e70001aca036",8,0.524,"Speed","Switch",1.82001347422146,1,"congruent"
"5c0c2dcbecc4e70001aca036",9,0.763,"Speed","Switch",2.16238813555503,1,"congruent"
"5c0c2dcbecc4e70001aca036",1,1.52,"Speed","Repeat",-1.45687475725022,1,"congruent"
"5c0c2dcbecc4e70001aca036",2,0.56,"Speed","Repeat",-0.784511081246313,1,"incongruent"
"5c0c2dcbecc4e70001aca036",3,1.082,"Speed","Repeat",-0.426212017060019,1,"incongruent"
"5c0c2dcbecc4e70001aca036",4,0.586,"Speed","Repeat",0.162990888490775,1,"incongruent"
"5c0c2dcbecc4e70001aca036",5,0.657,"Speed","Repeat",0.532790910292925,1,"congruent"
"5c0c2dcbecc4e70001aca036",6,0.635,"Speed","Repeat",0.933997393276837,1,"congruent"
"5c0c2dcbecc4e70001aca036",7,0.639,"Speed","Repeat",1.32547229673964,1,"incongruent"
"5c0c2dcbecc4e70001aca036",8,0.664,"Speed","Repeat",1.71871657829719,0,"incongruent"
"5c0c2dcbecc4e70001aca036",1,0.924,"Accuracy","Switch",-1.45687475725022,1,"congruent"
"5c0c2dcbecc4e70001aca036",2,1.081,"Accuracy","Switch",-1.04814841736364,1,"incongruent"
"5c0c2dcbecc4e70001aca036",3,0.543,"Accuracy","Switch",-0.459387856336528,1,"congruent"
"5c0c2dcbecc4e70001aca036",4,1.935,"Accuracy","Switch",-0.108608649052909,1,"incongruent"
"5c0c2dcbecc4e70001aca036",5,0.562,"Accuracy","Switch",0.85791413520271,1,"congruent"
"5c0c2dcbecc4e70001aca036",1,2.587,"Speed","Switch",-1.45687475725022,1,"incongruent"
"5c0c2dcbecc4e70001aca036",2,0.423,"Speed","Switch",-0.312529474472516,1,"congruent"
"5c0c2dcbecc4e70001aca036",3,0.654,"Speed","Switch",-0.0148316100313116,1,"congruent"
"5c0c2dcbecc4e70001aca036",4,0.654,"Speed","Switch",0.38504783938154,1,"incongruent"
"5c0c2dcbecc4e70001aca036",5,0.456,"Speed","Switch",0.784927288794391,1,"incongruent"
"5c0c2dcbecc4e70001aca036",6,0.598,"Speed","Switch",1.09722252251726,1,"congruent"
"5c0c2dcbecc4e70001aca036",7,0.807,"Speed","Switch",1.47233067860365,1,"incongruent"
"5c0c2dcbecc4e70001aca036",8,0.914,"Speed","Switch",1.93988884014058,1,"incongruent"
"5c0c2dcbecc4e70001aca036",9,0.599,"Speed","Switch",2.45477786571199,1,"congruent"
"5c0c2dcbecc4e70001aca036",1,0.899,"Accuracy","Switch",-1.45687475725022,1,"incongruent"
"5c0c2dcbecc4e70001aca036",2,0.613,"Accuracy","Switch",-1.0592070304558,1,"congruent"
"5c0c2dcbecc4e70001aca036",3,0.566,"Accuracy","Switch",-0.677463706514112,1,"congruent"
"5c0c2dcbecc4e70001aca036",4,1.024,"Accuracy","Switch",-0.316510575185697,1,"incongruent"
"5c0c2dcbecc4e70001aca036",5,0.497,"Accuracy","Switch",0.247036347991264,1,"congruent"
"5c0c2dcbecc4e70001aca036",6,0.657,"Accuracy","Switch",0.57746770718529,1,"incongruent"
"5c0c2dcbecc4e70001aca036",7,0.837,"Accuracy","Switch",0.978674190169201,1,"incongruent"
"5c0c2dcbecc4e70001aca036",8,0.839,"Accuracy","Switch",1.45950268741673,1,"incongruent"
"5c0c2dcbecc4e70001aca036",1,2.646,"Speed","Switch",-1.45687475725022,1,"incongruent"
"5c0c2dcbecc4e70001aca036",2,0.657,"Speed","Switch",-0.286431147574996,1,"congruent"
"5c0c2dcbecc4e70001aca036",3,1.716,"Speed","Switch",0.114775335408916,1,"incongruent"
"5c0c2dcbecc4e70001aca036",4,0.633,"Speed","Switch",0.98442466897713,1,"congruent"
"5c0c2dcbecc4e70001aca036",5,0.957,"Speed","Switch",1.37501488339256,0,"incongruent"
"5c0c2dcbecc4e70001aca036",6,1.68,"Speed","Switch",1.9089247234825,1,"incongruent"
"5c0c2dcbecc4e70001aca036",1,1.362,"Speed","Repeat",-1.45687475725022,1,"congruent"
"5c0c2dcbecc4e70001aca036",2,0.391,"Speed","Repeat",-0.854401515988825,1,"incongruent"
"5c0c2dcbecc4e70001aca036",3,0.622,"Speed","Repeat",-0.570858676305597,1,"incongruent"
"5c0c2dcbecc4e70001aca036",4,1.03,"Speed","Repeat",-0.185134251650723,1,"incongruent"
"5c0c2dcbecc4e70001aca036",5,0.785,"Speed","Repeat",0.381066738668359,1,"congruent"
"5c0c2dcbecc4e70001aca036",6,0.619,"Speed","Repeat",0.838893320684178,1,"congruent"
"5c0c2dcbecc4e70001aca036",7,1.276,"Speed","Repeat",1.22329071176799,1,"incongruent"
"5c0c2dcbecc4e70001aca036",1,0.816,"Accuracy","Switch",-1.45687475725022,1,"congruent"
"5c0c2dcbecc4e70001aca036",2,0.469,"Accuracy","Switch",-1.09592162592181,1,"incongruent"
"5c0c2dcbecc4e70001aca036",3,0.951,"Accuracy","Switch",-0.777875913391011,1,"incongruent"
"5c0c2dcbecc4e70001aca036",4,0.646,"Accuracy","Switch",-0.246620140443186,1,"congruent"
"5c0c2dcbecc4e70001aca036",5,1.114,"Accuracy","Switch",0.149720552780171,1,"congruent"
"5c0c2dcbecc4e70001aca036",6,1.992,"Accuracy","Switch",0.753078483088943,1,"incongruent"
"5c0c2dcbecc4e70001aca036",7,1.125,"Accuracy","Switch",1.74481490519471,1,"congruent"
"5c0c2dcbecc4e70001aca036",1,0.835,"Accuracy","Repeat",-1.45687475725022,1,"incongruent"
"5c0c2dcbecc4e70001aca036",2,1.26,"Accuracy","Repeat",-1.08751707997176,1,"congruent"
"5c0c2dcbecc4e70001aca036",3,0.631,"Accuracy","Repeat",-0.419576849204717,1,"congruent"
"5c0c2dcbecc4e70001aca036",4,0.872,"Accuracy","Repeat",-0.0298713238366622,1,"incongruent"
"5c0c2dcbecc4e70001aca036",5,0.505,"Accuracy","Repeat",0.466439231739908,1,"congruent"
