"subj_idx","trialNum","rt","intervalType","blockType","scaledRunningTime","response","congruency"
"5a89cc2c000dab00018cbd38",2,0.826,"Accuracy","Fixed",-0.108166304529223,1,"congruent"
"5a89cc2c000dab00018cbd38",3,0.751,"Accuracy","Fixed",0.367796402957755,1,"congruent"
"5a89cc2c000dab00018cbd38",4,0.792,"Accuracy","Fixed",0.810583271168224,1,"incongruent"
"5a89cc2c000dab00018cbd38",1,1.602,"Accuracy","Fixed",-1.45687475725022,1,"incongruent"
"5a89cc2c000dab00018cbd38",2,0.96,"Accuracy","Fixed",-0.748238830303997,1,"congruent"
"5a89cc2c000dab00018cbd38",3,1.08,"Accuracy","Fixed",-0.21300195664299,1,"congruent"
"5a89cc2c000dab00018cbd38",4,1.14,"Accuracy","Fixed",0.37531625986043,1,"incongruent"
"5a89cc2c000dab00018cbd38",5,0.742,"Accuracy","Fixed",0.990175147785058,1,"congruent"
"5a89cc2c000dab00018cbd38",6,0.931,"Accuracy","Fixed",1.42898091528235,1,"incongruent"
"5a89cc2c000dab00018cbd38",7,1.109,"Accuracy","Fixed",1.95138979775644,1,"congruent"
"5a89cc2c000dab00018cbd38",8,0.764,"Accuracy","Fixed",2.55253600544677,1,"incongruent"
"5a89cc2c000dab00018cbd38",1,0.991,"Accuracy","Fixed",-1.45687475725022,1,"incongruent"
"5a89cc2c000dab00018cbd38",2,0.816,"Accuracy","Fixed",-1.01851133427662,1,"congruent"
"5a89cc2c000dab00018cbd38",3,0.582,"Accuracy","Fixed",-0.546972072026511,1,"congruent"
"5a89cc2c000dab00018cbd38",4,0.731,"Accuracy","Fixed",-0.178941428319108,1,"incongruent"
"5a89cc2c000dab00018cbd38",5,0.896,"Accuracy","Fixed",0.254998549417626,0,"incongruent"
"5a89cc2c000dab00018cbd38",6,2.127,"Accuracy","Fixed",0.761925373562678,1,"incongruent"
"5a89cc2c000dab00018cbd38",7,0.788,"Accuracy","Fixed",1.81337830636616,1,"congruent"
"5a89cc2c000dab00018cbd38",1,1.795,"Accuracy","Fixed",-1.45687475725022,1,"incongruent"
"5a89cc2c000dab00018cbd38",2,0.603,"Accuracy","Fixed",-0.662866337232448,1,"congruent"
"5a89cc2c000dab00018cbd38",3,1.004,"Accuracy","Fixed",-0.285546458527622,1,"incongruent"
"5a89cc2c000dab00018cbd38",4,1.691,"Accuracy","Fixed",0.269153574175603,1,"incongruent"
"5a89cc2c000dab00018cbd38",5,0.987,"Accuracy","Fixed",1.12774429465165,1,"congruent"
"5a89cc2c000dab00018cbd38",6,0.915,"Accuracy","Fixed",1.6749244704522,1,"congruent"
"5a89cc2c000dab00018cbd38",7,1.459,"Accuracy","Fixed",2.1902558405473,1,"congruent"
"5a89cc2c000dab00018cbd38",1,1.714,"Accuracy","Fixed",-1.45687475725022,1,"congruent"
"5a89cc2c000dab00018cbd38",2,1.161,"Accuracy","Fixed",-0.698696243651077,1,"incongruent"
"5a89cc2c000dab00018cbd38",3,0.634,"Accuracy","Fixed",-0.0745481207290272,1,"congruent"
"5a89cc2c000dab00018cbd38",4,0.83,"Accuracy","Fixed",0.316484438210088,1,"incongruent"
"5a89cc2c000dab00018cbd38",5,0.579,"Accuracy","Fixed",0.794216523791813,1,"congruent"
"5a89cc2c000dab00018cbd38",6,1.223,"Accuracy","Fixed",1.16092013392816,1,"incongruent"
"5a89cc2c000dab00018cbd38",7,0.666,"Accuracy","Fixed",1.81249361731879,1,"congruent"
"5a89cc2c000dab00018cbd38",8,0.718,"Accuracy","Fixed",2.21768120101588,1,"incongruent"
"5a89cc2c000dab00018cbd38",1,1.156,"Accuracy","Fixed",-1.45687475725022,1,"incongruent"
"5a89cc2c000dab00018cbd38",2,0.994,"Accuracy","Fixed",-0.945524487868302,1,"congruent"
"5a89cc2c000dab00018cbd38",3,0.674,"Accuracy","Fixed",-0.395247900401944,1,"congruent"
"5a89cc2c000dab00018cbd38",4,1.399,"Accuracy","Fixed",0.0134784394846425,1,"incongruent"
"5a89cc2c000dab00018cbd38",5,0.951,"Accuracy","Fixed",0.742904559044147,1,"congruent"
"5a89cc2c000dab00018cbd38",6,1.166,"Accuracy","Fixed",1.27416033199197,1,"incongruent"
"5a89cc2c000dab00018cbd38",7,1.081,"Accuracy","Fixed",1.90052017753246,1,"incongruent"
"5a89cc2c000dab00018cbd38",1,0.71,"Accuracy","Fixed",-1.45687475725022,1,"congruent"
"5a89cc2c000dab00018cbd38",2,0.972,"Accuracy","Fixed",-1.14281014543261,1,"incongruent"
"5a89cc2c000dab00018cbd38",3,0.67,"Accuracy","Fixed",-0.602265137487359,1,"congruent"
"5a89cc2c000dab00018cbd38",4,1.029,"Accuracy","Fixed",-0.195308175695519,1,"incongruent"
"5a89cc2c000dab00018cbd38",5,1.167,"Accuracy","Fixed",0.370450470099876,1,"incongruent"
"5a89cc2c000dab00018cbd38",6,1.353,"Accuracy","Fixed",0.997252660164046,1,"congruent"
"5a89cc2c000dab00018cbd38",7,0.874,"Accuracy","Fixed",1.70633093163396,1,"incongruent"
"5a89cc2c000dab00018cbd38",1,1.492,"Accuracy","Fixed",-1.45687475725022,1,"congruent"
"5a89cc2c000dab00018cbd38",2,0.79,"Accuracy","Fixed",-0.796896727909543,1,"incongruent"
"5a89cc2c000dab00018cbd38",3,1.081,"Accuracy","Fixed",-0.336858423275289,1,"congruent"
"5a89cc2c000dab00018cbd38",4,1.314,"Accuracy","Fixed",0.251902137751818,1,"incongruent"
"5a89cc2c000dab00018cbd38",5,0.95,"Accuracy","Fixed",0.943728972797946,1,"incongruent"
"5a89cc2c000dab00018cbd38",6,0.654,"Accuracy","Fixed",1.47454240122208,1,"congruent"
"5a89cc2c000dab00018cbd38",3,1.273,"Accuracy","Fixed",-0.154612479516335,1,"congruent"
"5a89cc2c000dab00018cbd38",4,0.733,"Accuracy","Fixed",0.519078230058635,1,"incongruent"
"5a89cc2c000dab00018cbd38",6,1.131,"Accuracy","Fixed",1.41084478981119,1,"incongruent"
"5a89cc2c000dab00018cbd38",1,1.529,"Accuracy","Fixed",-1.45687475725022,1,"congruent"
"5a89cc2c000dab00018cbd38",2,1.127,"Accuracy","Fixed",-0.780529980533132,0,"incongruent"
"5a89cc2c000dab00018cbd38",3,1.048,"Accuracy","Fixed",-0.171421571416433,1,"congruent"
"5a89cc2c000dab00018cbd38",4,0.951,"Accuracy","Fixed",0.402741620329011,1,"incongruent"
"5a89cc2c000dab00018cbd38",5,1.337,"Accuracy","Fixed",0.933997393276837,1,"incongruent"
"5a89cc2c000dab00018cbd38",1,2.061,"Accuracy","Fixed",-1.45687475725022,1,"congruent"
"5a89cc2c000dab00018cbd38",2,1.485,"Accuracy","Fixed",-0.545202693931764,1,"incongruent"
"5a89cc2c000dab00018cbd38",3,0.614,"Accuracy","Fixed",0.222265054664804,1,"congruent"
"5a89cc2c000dab00018cbd38",4,0.61,"Accuracy","Fixed",0.604450723130184,0,"incongruent"
"5a89cc2c000dab00018cbd38",5,1.469,"Accuracy","Fixed",0.984867013500816,1,"congruent"
"5a89cc2c000dab00018cbd38",1,1.85,"Accuracy","Fixed",-1.45687475725022,1,"congruent"
"5a89cc2c000dab00018cbd38",2,1.227,"Accuracy","Fixed",-0.638537388429675,1,"incongruent"
"5a89cc2c000dab00018cbd38",3,1.116,"Accuracy","Fixed",0.0148054730557028,1,"congruent"
"5a89cc2c000dab00018cbd38",4,0.922,"Accuracy","Fixed",0.619048092411847,1,"incongruent"
"5a89cc2c000dab00018cbd38",5,0.709,"Accuracy","Fixed",1.13747587417276,1,"incongruent"
"5a89cc2c000dab00018cbd38",6,0.689,"Accuracy","Fixed",1.56168427238838,1,"incongruent"
"5a89cc2c000dab00018cbd38",7,1.23,"Accuracy","Fixed",1.97704578013027,1,"congruent"
"5a89cc2c000dab00018cbd38",1,1.911,"Accuracy","Fixed",-1.45687475725022,1,"congruent"
"5a89cc2c000dab00018cbd38",2,0.596,"Accuracy","Fixed",-0.611554372484781,1,"incongruent"
"5a89cc2c000dab00018cbd38",3,0.69,"Accuracy","Fixed",-0.237330905445763,1,"congruent"
"5a89cc2c000dab00018cbd38",4,0.961,"Accuracy","Fixed",0.178472946819812,1,"incongruent"
"5a89cc2c000dab00018cbd38",5,0.724,"Accuracy","Fixed",0.714152165004506,1,"congruent"
"5a89cc2c000dab00018cbd38",6,0.882,"Accuracy","Fixed",1.14499573107543,1,"incongruent"
"5a89cc2c000dab00018cbd38",7,0.586,"Accuracy","Fixed",1.64572973188887,1,"congruent"
"5a89cc2c000dab00018cbd38",8,0.683,"Accuracy","Fixed",2.01552975369102,1,"incongruent"
"5a89cc2c000dab00018cbd38",9,0.824,"Accuracy","Fixed",2.42823719429079,1,"incongruent"
"5a89cc2c000dab00018cbd38",1,1.418,"Accuracy","Fixed",-1.45687475725022,1,"congruent"
"5a89cc2c000dab00018cbd38",2,1.359,"Accuracy","Fixed",-0.829630222662365,1,"incongruent"
"5a89cc2c000dab00018cbd38",3,0.464,"Accuracy","Fixed",-0.117897884050332,1,"congruent"
"5a89cc2c000dab00018cbd38",4,1.078,"Accuracy","Fixed",0.197936105862031,1,"incongruent"
"5a89cc2c000dab00018cbd38",5,0.772,"Accuracy","Fixed",0.785369633318078,1,"congruent"
"5a89cc2c000dab00018cbd38",6,0.825,"Accuracy","Fixed",1.23744573652597,1,"incongruent"
"5a89cc2c000dab00018cbd38",7,0.636,"Accuracy","Fixed",1.71296609948926,1,"incongruent"
"5a89cc2c000dab00018cbd38",1,1.171,"Accuracy","Fixed",-1.45687475725022,1,"congruent"
"5a89cc2c000dab00018cbd38",2,1.06,"Accuracy","Fixed",-0.938889320013,1,"incongruent"
"5a89cc2c000dab00018cbd38",3,0.493,"Accuracy","Fixed",-0.359417993983315,1,"incongruent"
"5a89cc2c000dab00018cbd38",4,0.713,"Accuracy","Fixed",-0.0307560128840358,0,"incongruent"
"5a89cc2c000dab00018cbd38",5,1.54,"Accuracy","Fixed",0.395221763426336,1,"congruent"
"5a89cc2c000dab00018cbd38",6,0.668,"Accuracy","Fixed",1.18701846082568,1,"congruent"
"5a89cc2c000dab00018cbd38",1,1.774,"Accuracy","Fixed",-1.45687475725022,1,"congruent"
"5a89cc2c000dab00018cbd38",2,1.201,"Accuracy","Fixed",-0.67215557222987,1,"incongruent"
"5a89cc2c000dab00018cbd38",3,0.811,"Accuracy","Fixed",-0.030313668360349,1,"congruent"
"5a89cc2c000dab00018cbd38",4,0.716,"Accuracy","Fixed",0.439013871271327,1,"incongruent"
"5a89cc2c000dab00018cbd38",6,0.747,"Accuracy","Fixed",1.4440206290877,1,"incongruent"
"5a89cc2c000dab00018cbd38",1,1.834,"Accuracy","Fixed",-1.45687475725022,1,"congruent"
"5a89cc2c000dab00018cbd38",2,1.151,"Accuracy","Fixed",-0.645614900808663,1,"incongruent"
"5a89cc2c000dab00018cbd38",3,1.646,"Accuracy","Fixed",-0.0258902231234812,1,"congruent"
"5a89cc2c000dab00018cbd38",4,1.144,"Accuracy","Fixed",0.812794993786658,0,"incongruent"
"5a89cc2c000dab00018cbd38",1,1.742,"Accuracy","Fixed",-1.45687475725022,1,"incongruent"
"5a89cc2c000dab00018cbd38",2,1.336,"Accuracy","Fixed",-0.686310596987847,1,"congruent"
"5a89cc2c000dab00018cbd38",3,0.926,"Accuracy","Fixed",0.0152478175793896,1,"congruent"
"5a89cc2c000dab00018cbd38",4,1.348,"Accuracy","Fixed",0.535444977435046,1,"incongruent"
"5a89cc2c000dab00018cbd38",5,0.719,"Accuracy","Fixed",1.24231152628652,1,"congruent"
"5a89cc2c000dab00018cbd38",3,1.405,"Accuracy","Fixed",0.0152478175793896,1,"congruent"
"5a89cc2c000dab00018cbd38",4,1.047,"Accuracy","Fixed",0.747328004281014,1,"incongruent"
"5a89cc2c000dab00018cbd38",5,1.025,"Accuracy","Fixed",1.32104885150277,1,"incongruent"
"5a89cc2c000dab00018cbd38",1,1.444,"Accuracy","Fixed",-1.45687475725022,1,"incongruent"
"5a89cc2c000dab00018cbd38",2,0.769,"Accuracy","Fixed",-0.818129265046508,1,"congruent"
"5a89cc2c000dab00018cbd38",3,0.774,"Accuracy","Fixed",-0.367380195409677,1,"incongruent"
"5a89cc2c000dab00018cbd38",4,0.627,"Accuracy","Fixed",0.085580596845588,1,"congruent"
"5a89cc2c000dab00018cbd38",5,0.871,"Accuracy","Fixed",0.473516744118896,1,"congruent"
"5a89cc2c000dab00018cbd38",6,0.954,"Accuracy","Fixed",0.969384955171779,1,"incongruent"
"5a89cc2c000dab00018cbd38",7,0.683,"Accuracy","Fixed",1.50196776169067,1,"congruent"
"5a89cc2c000dab00018cbd38",1,0.898,"Accuracy","Fixed",-1.45687475725022,1,"incongruent"
"5a89cc2c000dab00018cbd38",2,1.053,"Accuracy","Fixed",-1.05964937497949,1,"congruent"
"5a89cc2c000dab00018cbd38",3,0.93,"Accuracy","Fixed",-0.483274460615614,1,"incongruent"
"5a89cc2c000dab00018cbd38",4,0.815,"Accuracy","Fixed",0.038692077334789,1,"incongruent"
"5a89cc2c000dab00018cbd38",6,1.081,"Accuracy","Fixed",0.964076820887538,1,"incongruent"
"5a89cc2c000dab00018cbd38",7,0.653,"Accuracy","Fixed",1.55283738191465,1,"congruent"
"5a89cc2c000dab00018cbd38",8,0.802,"Accuracy","Fixed",1.95227448680381,1,"incongruent"
"5a89cc2c000dab00018cbd38",9,0.634,"Accuracy","Fixed",2.4176209257223,1,"congruent"
"5a89cc2c000dab00018cbd38",1,1.15,"Accuracy","Fixed",-1.45687475725022,1,"incongruent"
"5a89cc2c000dab00018cbd38",2,0.75,"Accuracy","Fixed",-0.948178555010422,1,"congruent"
"5a89cc2c000dab00018cbd38",3,0.582,"Accuracy","Fixed",-0.50583403132364,1,"congruent"
"5a89cc2c000dab00018cbd38",4,1.083,"Accuracy","Fixed",-0.137803387616237,1,"incongruent"
"5a89cc2c000dab00018cbd38",5,0.684,"Accuracy","Fixed",0.451841862458244,1,"congruent"
"5a89cc2c000dab00018cbd38",6,0.52,"Accuracy","Fixed",0.864991647581698,1,"incongruent"
"5a89cc2c000dab00018cbd38",7,0.896,"Accuracy","Fixed",1.20559693082052,1,"incongruent"
"5a89cc2c000dab00018cbd38",8,0.74,"Accuracy","Fixed",1.71252375496557,1,"incongruent"
"5a89cc2c000dab00018cbd38",1,1.434,"Accuracy","Fixed",-1.45687475725022,1,"incongruent"
"5a89cc2c000dab00018cbd38",2,1.157,"Accuracy","Fixed",-0.822552710283376,1,"congruent"
"5a89cc2c000dab00018cbd38",3,1.291,"Accuracy","Fixed",-0.200173965456073,1,"congruent"
"5a89cc2c000dab00018cbd38",4,1.101,"Accuracy","Fixed",0.481478945545258,1,"incongruent"
"5a89cc2c000dab00018cbd38",1,1.497,"Accuracy","Fixed",-1.45687475725022,1,"incongruent"
"5a89cc2c000dab00018cbd38",2,0.801,"Accuracy","Fixed",-0.794685005291109,1,"congruent"
"5a89cc2c000dab00018cbd38",3,0.608,"Accuracy","Fixed",-0.329780910896301,1,"congruent"
"5a89cc2c000dab00018cbd38",4,1.938,"Accuracy","Fixed",0.0497506904269586,1,"incongruent"
"5a89cc2c000dab00018cbd38",5,0.866,"Accuracy","Fixed",1.01760050825364,1,"congruent"
"5a89cc2c000dab00018cbd38",1,0.741,"Accuracy","Fixed",-1.45687475725022,0,"incongruent"
"5a89cc2c000dab00018cbd38",2,1.729,"Accuracy","Fixed",-1.12909746519832,1,"congruent"
"5a89cc2c000dab00018cbd38",5,0.705,"Accuracy","Fixed",0.980885912787635,1,"congruent"
"5a89cc2c000dab00018cbd38",6,1.126,"Accuracy","Fixed",1.40332493290851,1,"incongruent"
"5a89cc2c000dab00018cbd38",7,1.014,"Accuracy","Fixed",2.01199099750152,1,"incongruent"
"5a89cc2c000dab00018cbd38",1,1.863,"Accuracy","Fixed",-1.45687475725022,1,"congruent"
"5a89cc2c000dab00018cbd38",2,0.996,"Accuracy","Fixed",-0.632786909621747,1,"incongruent"
"5a89cc2c000dab00018cbd38",3,1.105,"Accuracy","Fixed",-0.0816256331080158,1,"incongruent"
"5a89cc2c000dab00018cbd38",4,0.903,"Accuracy","Fixed",0.517751196487574,1,"congruent"
"5a89cc2c000dab00018cbd38",5,0.637,"Accuracy","Fixed",1.02777443229843,1,"incongruent"
"5a89cc2c000dab00018cbd38",6,0.776,"Accuracy","Fixed",1.42013402480861,1,"congruent"
"5a89cc2c000dab00018cbd38",1,1.33,"Accuracy","Fixed",-1.45687475725022,1,"incongruent"
"5a89cc2c000dab00018cbd38",2,0.907,"Accuracy","Fixed",-0.868556540746802,1,"congruent"
"5a89cc2c000dab00018cbd38",3,0.988,"Accuracy","Fixed",-0.356763926841194,1,"congruent"
"5a89cc2c000dab00018cbd38",4,0.859,"Accuracy","Fixed",0.190858593483042,1,"incongruent"
"5a89cc2c000dab00018cbd38",5,1.565,"Accuracy","Fixed",0.681418670251684,1,"incongruent"
"5a89cc2c000dab00018cbd38",1,1.027,"Accuracy","Fixed",-1.45687475725022,1,"incongruent"
"5a89cc2c000dab00018cbd38",2,0.826,"Accuracy","Fixed",-1.0025869314239,1,"congruent"
"5a89cc2c000dab00018cbd38",3,1.562,"Accuracy","Fixed",-0.526624223936919,1,"congruent"
"5a89cc2c000dab00018cbd38",4,0.962,"Accuracy","Fixed",0.274904052983531,1,"incongruent"
"5a89cc2c000dab00018cbd38",5,0.746,"Accuracy","Fixed",0.811025615691911,1,"congruent"
"5a89cc2c000dab00018cbd38",6,1.108,"Accuracy","Fixed",1.25160076128395,1,"incongruent"
"5a89cc2c000dab00018cbd38",7,0.826,"Accuracy","Fixed",1.8523046244506,1,"incongruent"
"5a89cc2c000dab00018cbd38",1,1.096,"Accuracy","Fixed",-1.45687475725022,1,"congruent"
"5a89cc2c000dab00018cbd38",2,1.557,"Accuracy","Fixed",-0.972065159289509,1,"incongruent"
"5a89cc2c000dab00018cbd38",3,0.839,"Accuracy","Fixed",-0.172748604987493,1,"congruent"
"5a89cc2c000dab00018cbd38",4,1.298,"Accuracy","Fixed",0.308964581307413,1,"incongruent"
"5a89cc2c000dab00018cbd38",5,0.573,"Accuracy","Fixed",0.993713903974552,1,"congruent"
"5a89cc2c000dab00018cbd38",6,0.854,"Accuracy","Fixed",1.35776344696877,1,"incongruent"
"5a89cc2c000dab00018cbd38",7,0.754,"Accuracy","Fixed",1.84611180111898,1,"incongruent"
"5a89cc2c000dab00018cbd38",1,0.7,"Accuracy","Fixed",-1.45687475725022,1,"congruent"
"5a89cc2c000dab00018cbd38",2,0.995,"Accuracy","Fixed",-1.14723359066947,1,"incongruent"
"5a89cc2c000dab00018cbd38",3,0.724,"Accuracy","Fixed",-0.59651465867943,1,"congruent"
"5a89cc2c000dab00018cbd38",4,1.039,"Accuracy","Fixed",-0.165671092608504,1,"incongruent"
"5a89cc2c000dab00018cbd38",5,0.485,"Accuracy","Fixed",0.404510998423758,1,"congruent"
"5a89cc2c000dab00018cbd38",1,0.517,"Speed","Fixed",-1.45687475725022,1,"incongruent"
"5a89cc2c000dab00018cbd38",3,0.291,"Speed","Fixed",-0.961448890721026,1,"incongruent"
"5a89cc2c000dab00018cbd38",3,0.545,"Speed","Fixed",-0.959237168102592,1,"congruent"
"5a89cc2c000dab00018cbd38",2,0.359,"Speed","Fixed",-1.04239793855571,0,"incongruent"
"5a89cc2c000dab00018cbd38",5,0.355,"Speed","Fixed",-0.221848847116726,1,"incongruent"
"5a89cc2c000dab00018cbd38",6,0.433,"Speed","Fixed",0.0457695897137776,0,"incongruent"
"5a89cc2c000dab00018cbd38",8,0.393,"Speed","Fixed",0.688496182630672,1,"incongruent"
"5a89cc2c000dab00018cbd38",11,0.344,"Speed","Fixed",1.56345365048313,0,"incongruent"
"5a89cc2c000dab00018cbd38",13,0.275,"Speed","Fixed",2.05357138272808,1,"incongruent"
"5a89cc2c000dab00018cbd38",6,0.32,"Speed","Fixed",0.0174595401978235,1,"incongruent"
"5a89cc2c000dab00018cbd38",8,0.451,"Speed","Fixed",0.556677514572011,0,"incongruent"
"5a89cc2c000dab00018cbd38",10,0.341,"Speed","Fixed",1.14588042012281,1,"congruent"
"5a89cc2c000dab00018cbd38",2,0.445,"Speed","Fixed",-1.04151324950833,0,"incongruent"
"5a89cc2c000dab00018cbd38",4,0.331,"Speed","Fixed",-0.490794317518289,0,"incongruent"
"5a89cc2c000dab00018cbd38",6,0.416,"Speed","Fixed",0.0594822699480678,0,"incongruent"
"5a89cc2c000dab00018cbd38",8,0.366,"Speed","Fixed",0.586314597659026,1,"incongruent"
"5a89cc2c000dab00018cbd38",10,0.467,"Speed","Fixed",1.09678017799357,1,"congruent"
"5a89cc2c000dab00018cbd38",1,0.905,"Speed","Fixed",-1.45687475725022,1,"incongruent"
"5a89cc2c000dab00018cbd38",9,0.328,"Speed","Fixed",0.493864592208488,1,"incongruent"
"5a89cc2c000dab00018cbd38",1,1.162,"Speed","Fixed",-1.45687475725022,1,"incongruent"
"5a89cc2c000dab00018cbd38",3,0.258,"Speed","Fixed",-0.702677344364258,0,"incongruent"
"5a89cc2c000dab00018cbd38",2,0.252,"Speed","Fixed",-1.04460966117414,0,"incongruent"
"5a89cc2c000dab00018cbd38",3,0.303,"Speed","Fixed",-0.822552710283376,1,"incongruent"
"5a89cc2c000dab00018cbd38",6,0.378,"Speed","Fixed",-0.0807409440606422,0,"incongruent"
"5a89cc2c000dab00018cbd38",8,0.251,"Speed","Fixed",0.430166980797591,1,"congruent"
"5a89cc2c000dab00018cbd38",2,0.376,"Speed","Fixed",-0.969853436671075,1,"incongruent"
"5a89cc2c000dab00018cbd38",3,0.643,"Speed","Fixed",-0.692945764843149,0,"incongruent"
"5a89cc2c000dab00018cbd38",7,0.298,"Speed","Fixed",0.476613155784704,1,"congruent"
"5a89cc2c000dab00018cbd38",6,0.283,"Speed","Fixed",0.18289639205668,1,"congruent"
"5a89cc2c000dab00018cbd38",9,0.272,"Speed","Fixed",0.89772514233452,1,"incongruent"
"5a89cc2c000dab00018cbd38",6,0.256,"Speed","Fixed",-0.0285442902656019,0,"incongruent"
"5a89cc2c000dab00018cbd38",14,0.263,"Speed","Fixed",1.72977519138936,1,"incongruent"
"5a89cc2c000dab00018cbd38",1,0.806,"Speed","Fixed",-1.45687475725022,0,"incongruent"
"5a89cc2c000dab00018cbd38",3,0.295,"Speed","Fixed",-0.880499842886345,1,"incongruent"
"5a89cc2c000dab00018cbd38",5,0.304,"Speed","Fixed",-0.232907460208895,1,"congruent"
"5a89cc2c000dab00018cbd38",10,0.377,"Speed","Fixed",0.824295951402514,0,"incongruent"
"5a89cc2c000dab00018cbd38",12,0.306,"Speed","Fixed",1.34582014482923,0,"incongruent"
"5a89cc2c000dab00018cbd38",1,0.787,"Speed","Fixed",-1.45687475725022,1,"incongruent"
"5a89cc2c000dab00018cbd38",3,0.277,"Speed","Fixed",-0.872095296936296,0,"incongruent"
"5a89cc2c000dab00018cbd38",4,0.255,"Speed","Fixed",-0.638979732953362,1,"incongruent"
"5a89cc2c000dab00018cbd38",6,0.261,"Speed","Fixed",-0.170094537845372,1,"incongruent"
"5a89cc2c000dab00018cbd38",13,0.273,"Speed","Fixed",1.65103786617311,0,"incongruent"
"5a89cc2c000dab00018cbd38",1,1.407,"Speed","Fixed",-1.45687475725022,1,"incongruent"
"5a89cc2c000dab00018cbd38",4,0.289,"Speed","Fixed",-0.352340481604327,1,"incongruent"
"5a89cc2c000dab00018cbd38",6,0.277,"Speed","Fixed",0.162106199443401,1,"incongruent"
"5a89cc2c000dab00018cbd38",8,0.28,"Speed","Fixed",0.646915797404115,0,"incongruent"
"5a89cc2c000dab00018cbd38",1,0.609,"Speed","Fixed",-1.45687475725022,0,"incongruent"
"5a89cc2c000dab00018cbd38",3,0.333,"Speed","Fixed",-0.947293865963049,0,"incongruent"
"5a89cc2c000dab00018cbd38",7,0.282,"Speed","Fixed",0.051077723998019,1,"congruent"
"5a89cc2c000dab00018cbd38",10,0.268,"Speed","Fixed",0.738481113807279,1,"incongruent"
"5a89cc2c000dab00018cbd38",1,0.857,"Speed","Fixed",-1.45687475725022,0,"incongruent"
"5a89cc2c000dab00018cbd38",7,0.252,"Speed","Fixed",-0.106839270958162,1,"congruent"
"5a89cc2c000dab00018cbd38",1,1.409,"Speed","Fixed",-1.45687475725022,1,"congruent"
"5a89cc2c000dab00018cbd38",5,0.426,"Speed","Fixed",-0.316510575185697,1,"congruent"
"5a89cc2c000dab00018cbd38",3,0.321,"Speed","Fixed",-0.620401262958517,0,"incongruent"
"5a89cc2c000dab00018cbd38",5,0.279,"Speed","Fixed",-0.131168219760935,0,"incongruent"
"5a89cc2c000dab00018cbd38",1,1.229,"Speed","Fixed",-1.45687475725022,1,"incongruent"
"5a89cc2c000dab00018cbd38",4,0.374,"Speed","Fixed",-0.456733789194407,0,"incongruent"
"5a89cc2c000dab00018cbd38",13,0.309,"Speed","Fixed",1.66209647926528,1,"incongruent"
"5a89cc2c000dab00018cbd38",7,0.286,"Speed","Fixed",1.18923018344411,0,"incongruent"
"5a89cc2c000dab00018cbd38",1,1.705,"Speed","Fixed",-1.45687475725022,1,"congruent"
"5a89cc2c000dab00018cbd38",3,0.385,"Speed","Fixed",-0.427096706107393,0,"incongruent"
"5a89cc2c000dab00018cbd38",5,0.295,"Speed","Fixed",0.109024856600987,1,"congruent"
"5a89cc2c000dab00018cbd38",8,0.286,"Speed","Fixed",0.854817723536902,0,"incongruent"
"5a89cc2c000dab00018cbd38",2,0.388,"Speed","Fixed",-1.17819770732755,1,"incongruent"
"5a89cc2c000dab00018cbd38",5,0.385,"Speed","Fixed",-0.255467030916921,1,"congruent"
"5a89cc2c000dab00018cbd38",7,0.278,"Speed","Fixed",0.288174388694134,1,"incongruent"
"5a89cc2c000dab00018cbd38",10,0.294,"Speed","Fixed",1.03839070086692,1,"congruent"
"5a89cc2c000dab00018cbd38",2,0.293,"Speed","Fixed",-1.02028071237137,1,"congruent"
"5a89cc2c000dab00018cbd38",1,0.694,"Speed","Fixed",-1.45687475725022,1,"incongruent"
"5a89cc2c000dab00018cbd38",6,1.193,"Speed","Fixed",-0.31341416351989,1,"incongruent"
"5a89cc2c000dab00018cbd38",10,0.264,"Speed","Fixed",0.959211031126983,1,"incongruent"
"5a89cc2c000dab00018cbd38",2,0.37,"Speed","Fixed",-1.04195559403202,1,"incongruent"
"5a89cc2c000dab00018cbd38",4,0.266,"Speed","Fixed",-0.550510828216005,1,"incongruent"
"5a89cc2c000dab00018cbd38",8,0.265,"Speed","Fixed",0.39743348604477,0,"incongruent"
"5a89cc2c000dab00018cbd38",10,0.331,"Speed","Fixed",0.881800739481796,1,"incongruent"
"5a89cc2c000dab00018cbd38",13,0.4,"Speed","Fixed",1.63157470713089,0,"incongruent"
"5a89cc2c000dab00018cbd38",3,0.252,"Speed","Fixed",-0.862806061938873,0,"incongruent"
"5a89cc2c000dab00018cbd38",7,0.297,"Speed","Fixed",-0.0351794581209036,0,"incongruent"
"5a89cc2c000dab00018cbd38",10,0.413,"Speed","Fixed",0.867645714723819,1,"congruent"
"5a89cc2c000dab00018cbd38",2,0.365,"Speed","Fixed",-1.16183095995114,0,"incongruent"
"5a89cc2c000dab00018cbd38",6,0.38,"Speed","Fixed",-0.120109606668766,1,"incongruent"
"5a89cc2c000dab00018cbd38",9,0.396,"Speed","Fixed",0.702651207388649,0,"incongruent"
"5a89cc2c000dab00018cbd38",11,0.315,"Speed","Fixed",1.23744573652597,1,"incongruent"
"5a89cc2c000dab00018cbd38",5,0.347,"Speed","Fixed",-0.241754350682631,1,"congruent"
"5a89cc2c000dab00018cbd38",7,0.289,"Speed","Fixed",0.297905968215244,0,"incongruent"
"5a89cc2c000dab00018cbd38",8,0.288,"Speed","Fixed",0.536329666482419,1,"incongruent"
"5a89cc2c000dab00018cbd38",11,0.271,"Speed","Fixed",0.764579440704799,0,"incongruent"
"5a89cc2c000dab00018cbd38",1,0.486,"Speed","Mixed",-1.45687475725022,1,"incongruent"
"5a89cc2c000dab00018cbd38",6,0.254,"Speed","Mixed",-0.466465368715516,0,"incongruent"
"5a89cc2c000dab00018cbd38",7,0.286,"Speed","Mixed",-0.243523728777378,1,"incongruent"
"5a89cc2c000dab00018cbd38",9,0.342,"Speed","Mixed",0.215629886809502,0,"incongruent"
"5a89cc2c000dab00018cbd38",2,0.947,"Accuracy","Mixed",1.76914385399748,1,"incongruent"
"5a89cc2c000dab00018cbd38",3,1.023,"Accuracy","Mixed",2.29863024885056,1,"incongruent"
"5a89cc2c000dab00018cbd38",1,1.267,"Speed","Mixed",-1.45687475725022,0,"incongruent"
"5a89cc2c000dab00018cbd38",14,0.274,"Speed","Mixed",1.82266754136358,0,"incongruent"
"5a89cc2c000dab00018cbd38",1,1.049,"Accuracy","Mixed",-1.45687475725022,1,"congruent"
"5a89cc2c000dab00018cbd38",2,1.033,"Accuracy","Mixed",-0.992855351902787,0,"incongruent"
"5a89cc2c000dab00018cbd38",3,0.939,"Accuracy","Mixed",-0.425327328012646,1,"congruent"
"5a89cc2c000dab00018cbd38",4,0.792,"Accuracy","Mixed",0.100620310650939,1,"incongruent"
"5a89cc2c000dab00018cbd38",5,1.032,"Accuracy","Mixed",0.561543304332566,1,"incongruent"
"5a89cc2c000dab00018cbd38",6,0.984,"Accuracy","Mixed",1.12862898369902,1,"congruent"
"5a89cc2c000dab00018cbd38",2,0.329,"Speed","Mixed",-1.11538478496403,1,"incongruent"
"5a89cc2c000dab00018cbd38",3,0.259,"Speed","Mixed",-0.859267305749379,0,"incongruent"
"5a89cc2c000dab00018cbd38",5,0.254,"Speed","Mixed",-0.395690244925631,1,"incongruent"
"5a89cc2c000dab00018cbd38",6,0.273,"Speed","Mixed",-0.172748604987493,0,"incongruent"
"5a89cc2c000dab00018cbd38",8,0.287,"Speed","Mixed",0.302771757975798,1,"congruent"
"5a89cc2c000dab00018cbd38",1,2.331,"Accuracy","Mixed",-1.45687475725022,1,"incongruent"
"5a89cc2c000dab00018cbd38",2,0.819,"Accuracy","Mixed",-0.425769672536332,1,"congruent"
"5a89cc2c000dab00018cbd38",3,0.622,"Accuracy","Mixed",0.0470966232848379,1,"congruent"
"5a89cc2c000dab00018cbd38",4,0.945,"Accuracy","Mixed",0.432821047939712,1,"incongruent"
"5a89cc2c000dab00018cbd38",5,0.844,"Accuracy","Mixed",0.961422753745417,1,"incongruent"
"5a89cc2c000dab00018cbd38",6,0.875,"Accuracy","Mixed",1.44534766265876,1,"congruent"
"5a89cc2c000dab00018cbd38",7,0.706,"Accuracy","Mixed",1.94298525180639,1,"congruent"
"5a89cc2c000dab00018cbd38",8,0.99,"Accuracy","Mixed",2.36586661645095,1,"incongruent"
"5a89cc2c000dab00018cbd38",1,1.737,"Accuracy","Mixed",-1.45687475725022,1,"congruent"
"5a89cc2c000dab00018cbd38",2,1.848,"Accuracy","Mixed",-0.688522319606281,1,"incongruent"
"5a89cc2c000dab00018cbd38",3,0.622,"Accuracy","Mixed",0.239516491088588,1,"congruent"
"5a89cc2c000dab00018cbd38",4,0.82,"Accuracy","Mixed",0.625240915743462,1,"incongruent"
"5a89cc2c000dab00018cbd38",3,0.27,"Speed","Mixed",-0.950832622152543,1,"congruent"
"5a89cc2c000dab00018cbd38",7,0.257,"Speed","Mixed",-0.0626048185894841,1,"incongruent"
"5a89cc2c000dab00018cbd38",9,0.254,"Speed","Mixed",0.388144251047347,0,"incongruent"
"5a89cc2c000dab00018cbd38",10,0.271,"Speed","Mixed",0.611085890985485,1,"incongruent"
"5a89cc2c000dab00018cbd38",2,0.271,"Speed","Mixed",-1.1162694740114,0,"incongruent"
"5a89cc2c000dab00018cbd38",3,0.286,"Speed","Mixed",-0.885807977170586,1,"incongruent"
"5a89cc2c000dab00018cbd38",9,0.269,"Speed","Mixed",0.489883491495307,1,"congruent"
"5a89cc2c000dab00018cbd38",14,0.286,"Speed","Mixed",1.58689791023853,0,"incongruent"
"5a89cc2c000dab00018cbd38",2,0.293,"Speed","Mixed",-1.19367976565659,1,"incongruent"
"5a89cc2c000dab00018cbd38",4,0.256,"Speed","Mixed",-0.753104620064551,1,"incongruent"
"5a89cc2c000dab00018cbd38",5,0.285,"Speed","Mixed",-0.529278291079039,0,"incongruent"
"5a89cc2c000dab00018cbd38",1,1.578,"Accuracy","Mixed",-1.45687475725022,1,"congruent"
"5a89cc2c000dab00018cbd38",2,1.19,"Accuracy","Mixed",-0.758855098872479,1,"incongruent"
"5a89cc2c000dab00018cbd38",3,1.442,"Accuracy","Mixed",-0.121878984763513,1,"incongruent"
"5a89cc2c000dab00018cbd38",4,0.929,"Accuracy","Mixed",0.626567949314523,1,"incongruent"
"5a89cc2c000dab00018cbd38",5,1.27,"Accuracy","Mixed",1.14809214274124,1,"congruent"
"5a89cc2c000dab00018cbd38",6,1.217,"Accuracy","Mixed",1.82045581874515,1,"incongruent"
"5a89cc2c000dab00018cbd38",7,0.882,"Accuracy","Mixed",2.46937523499366,1,"congruent"
"5a89cc2c000dab00018cbd38",1,1.088,"Accuracy","Mixed",-1.45687475725022,1,"incongruent"
"5a89cc2c000dab00018cbd38",2,0.535,"Accuracy","Mixed",-0.975603915479003,1,"congruent"
"5a89cc2c000dab00018cbd38",3,0.774,"Accuracy","Mixed",-0.628363464384879,1,"incongruent"
"5a89cc2c000dab00018cbd38",4,1.206,"Accuracy","Mixed",-0.175402672129614,1,"congruent"
"5a89cc2c000dab00018cbd38",5,1.201,"Accuracy","Mixed",0.468650954358341,1,"congruent"
"5a89cc2c000dab00018cbd38",6,1.301,"Accuracy","Mixed",1.11049285822786,1,"incongruent"
"5a89cc2c000dab00018cbd38",7,0.871,"Accuracy","Mixed",1.79656921446606,1,"congruent"
"5a89cc2c000dab00018cbd38",1,0.574,"Speed","Mixed",-1.45687475725022,1,"incongruent"
"5a89cc2c000dab00018cbd38",4,0.475,"Speed","Mixed",-0.564665852973982,1,"incongruent"
"5a89cc2c000dab00018cbd38",6,0.444,"Speed","Mixed",0.024537052576812,1,"incongruent"
"5a89cc2c000dab00018cbd38",9,0.428,"Speed","Mixed",0.936651460418957,1,"congruent"
"5a89cc2c000dab00018cbd38",13,0.395,"Speed","Mixed",1.94519697442482,1,"incongruent"
"5a89cc2c000dab00018cbd38",1,1.443,"Accuracy","Mixed",-1.45687475725022,1,"incongruent"
"5a89cc2c000dab00018cbd38",2,0.899,"Accuracy","Mixed",-0.818571609570195,1,"congruent"
"5a89cc2c000dab00018cbd38",3,0.492,"Accuracy","Mixed",-0.310317751854082,1,"congruent"
"5a89cc2c000dab00018cbd38",4,1.257,"Accuracy","Mixed",0.0179018847215103,1,"incongruent"
"5a89cc2c000dab00018cbd38",5,1.12,"Accuracy","Mixed",0.684515081917491,1,"congruent"
"5a89cc2c000dab00018cbd38",6,1.042,"Accuracy","Mixed",1.29052707936838,1,"incongruent"
"5a89cc2c000dab00018cbd38",3,0.31,"Speed","Mixed",-0.903944102641744,0,"incongruent"
"5a89cc2c000dab00018cbd38",4,0.368,"Speed","Mixed",-0.656231169377146,1,"incongruent"
"5a89cc2c000dab00018cbd38",6,0.336,"Speed","Mixed",-0.113032094289777,0,"incongruent"
"5a89cc2c000dab00018cbd38",8,0.392,"Speed","Mixed",0.446976072697689,1,"congruent"
"5a89cc2c000dab00018cbd38",3,0.343,"Speed","Mixed",-0.834938356946606,1,"congruent"
"5a89cc2c000dab00018cbd38",5,0.355,"Speed","Mixed",-0.300143827809286,1,"incongruent"
"5a89cc2c000dab00018cbd38",8,0.279,"Speed","Mixed",0.507134927919092,1,"incongruent"
"5a89cc2c000dab00018cbd38",10,0.409,"Speed","Mixed",0.938863183037391,0,"incongruent"
"5a89cc2c000dab00018cbd38",12,0.342,"Speed","Mixed",1.50992996311703,1,"incongruent"
"5a89cc2c000dab00018cbd38",1,1.688,"Accuracy","Mixed",-1.45687475725022,1,"congruent"
"5a89cc2c000dab00018cbd38",2,0.902,"Accuracy","Mixed",-0.710197201266933,0,"incongruent"
"5a89cc2c000dab00018cbd38",3,0.43,"Accuracy","Mixed",-0.20061630997976,1,"incongruent"
"5a89cc2c000dab00018cbd38",4,1.058,"Accuracy","Mixed",0.100177966127252,0,"incongruent"
"5a89cc2c000dab00018cbd38",5,0.781,"Accuracy","Mixed",0.678764603109563,1,"congruent"
"5a89cc2c000dab00018cbd38",6,0.595,"Accuracy","Mixed",1.13482180703064,1,"incongruent"
"5a89cc2c000dab00018cbd38",7,1.022,"Accuracy","Mixed",1.50860292954597,1,"incongruent"
"5a89cc2c000dab00018cbd38",1,0.609,"Speed","Mixed",-1.45687475725022,1,"congruent"
"5a89cc2c000dab00018cbd38",4,0.385,"Speed","Mixed",-0.730545049356525,0,"incongruent"
"5a89cc2c000dab00018cbd38",2,0.754,"Accuracy","Mixed",0.239074146564901,1,"congruent"
"5a89cc2c000dab00018cbd38",3,0.854,"Accuracy","Mixed",0.683188048346431,1,"incongruent"
"5a89cc2c000dab00018cbd38",4,0.889,"Accuracy","Mixed",1.17153640249664,1,"incongruent"
"5a89cc2c000dab00018cbd38",5,1.24,"Accuracy","Mixed",1.67536681497588,1,"congruent"
"5a89cc2c000dab00018cbd38",6,0.911,"Accuracy","Mixed",2.33446015526919,1,"incongruent"
"5a89cc2c000dab00018cbd38",3,0.28,"Speed","Mixed",-0.830957256233425,0,"incongruent"
"5a89cc2c000dab00018cbd38",5,0.778,"Speed","Mixed",-0.296605071619792,1,"incongruent"
"5a89cc2c000dab00018cbd38",8,0.414,"Speed","Mixed",0.866761025676446,0,"incongruent"
"5a89cc2c000dab00018cbd38",4,0.258,"Speed","Mixed",-0.771240745535709,0,"incongruent"
"5a89cc2c000dab00018cbd38",6,0.297,"Speed","Mixed",-0.272718467340706,1,"congruent"
"5a89cc2c000dab00018cbd38",2,1.388,"Accuracy","Mixed",-0.956583100960471,1,"congruent"
"5a89cc2c000dab00018cbd38",3,2.506,"Accuracy","Mixed",-0.232022771161522,1,"congruent"
"5a89cc2c000dab00018cbd38",4,1.426,"Accuracy","Mixed",0.98707873611925,1,"incongruent"
"5a89cc2c000dab00018cbd38",5,1.114,"Accuracy","Mixed",1.7284481578183,1,"congruent"
"5a89cc2c000dab00018cbd38",1,1.073,"Accuracy","Mixed",-1.45687475725022,1,"incongruent"
"5a89cc2c000dab00018cbd38",2,0.711,"Accuracy","Mixed",-0.982239083334305,1,"congruent"
"5a89cc2c000dab00018cbd38",3,0.789,"Accuracy","Mixed",-0.557145996071307,1,"congruent"
"5a89cc2c000dab00018cbd38",4,0.707,"Accuracy","Mixed",-0.0975500359607399,1,"incongruent"
"5a89cc2c000dab00018cbd38",1,1.391,"Accuracy","Mixed",-1.45687475725022,1,"incongruent"
"5a89cc2c000dab00018cbd38",2,0.837,"Accuracy","Mixed",-0.841573524801908,1,"congruent"
"5a89cc2c000dab00018cbd38",3,0.533,"Accuracy","Mixed",-0.360745027554375,1,"congruent"
"5a89cc2c000dab00018cbd38",4,1.011,"Accuracy","Mixed",-0.0143892655076248,1,"incongruent"
"5a89cc2c000dab00018cbd38",5,0.599,"Accuracy","Mixed",0.543407178861408,1,"congruent"
"5a89cc2c000dab00018cbd38",6,0.598,"Accuracy","Mixed",0.918957679471486,1,"incongruent"
"5a89cc2c000dab00018cbd38",7,0.95,"Accuracy","Mixed",1.29406583555788,1,"congruent"
"5a89cc2c000dab00018cbd38",1,0.636,"Speed","Mixed",-1.45687475725022,1,"incongruent"
"5a89cc2c000dab00018cbd38",6,0.367,"Speed","Mixed",-0.248389518537933,0,"incongruent"
"5a89cc2c000dab00018cbd38",7,0.297,"Speed","Mixed",0.024537052576812,1,"incongruent"
"5a89cc2c000dab00018cbd38",10,0.332,"Speed","Mixed",1.06183496062232,0,"incongruent"
"5a89cc2c000dab00018cbd38",1,0.83,"Speed","Mixed",-1.45687475725022,0,"incongruent"
"5a89cc2c000dab00018cbd38",13,0.353,"Speed","Mixed",1.37811129505837,1,"incongruent"
"5a89cc2c000dab00018cbd38",1,1.657,"Accuracy","Mixed",-1.45687475725022,1,"incongruent"
"5a89cc2c000dab00018cbd38",3,1.04,"Accuracy","Mixed",-0.306778995664588,1,"incongruent"
"5a89cc2c000dab00018cbd38",4,0.654,"Accuracy","Mixed",0.263845439891361,1,"congruent"
"5a89cc2c000dab00018cbd38",5,0.955,"Accuracy","Mixed",0.663724889304212,1,"incongruent"
"5a89cc2c000dab00018cbd38",1,0.988,"Accuracy","Mixed",-1.45687475725022,1,"incongruent"
"5a89cc2c000dab00018cbd38",2,0.83,"Accuracy","Mixed",-1.01983836784768,1,"congruent"
"5a89cc2c000dab00018cbd38",3,0.895,"Accuracy","Mixed",-0.542106282265956,1,"incongruent"
"5a89cc2c000dab00018cbd38",4,0.725,"Accuracy","Mixed",-0.0356218026445904,1,"congruent"
"5a89cc2c000dab00018cbd38",5,0.733,"Accuracy","Mixed",0.395664107950022,1,"incongruent"
"5a89cc2c000dab00018cbd38",6,0.719,"Accuracy","Mixed",0.830488774734129,1,"congruent"
"5a89cc2c000dab00018cbd38",7,0.643,"Accuracy","Mixed",1.25912061818662,1,"incongruent"
"5a89cc2c000dab00018cbd38",2,0.259,"Speed","Mixed",-1.05168717355313,0,"incongruent"
"5a89cc2c000dab00018cbd38",6,0.288,"Speed","Mixed",-0.14709262261366,1,"congruent"
"5a89cc2c000dab00018cbd38",8,0.253,"Speed","Mixed",0.305868169641606,0,"incongruent"
"5a89cc2c000dab00018cbd38",1,0.753,"Accuracy","Mixed",-1.45687475725022,1,"incongruent"
"5a89cc2c000dab00018cbd38",3,0.752,"Accuracy","Mixed",-0.145323244518912,1,"incongruent"
"5a89cc2c000dab00018cbd38",4,0.755,"Accuracy","Mixed",0.297905968215244,1,"congruent"
"5a89cc2c000dab00018cbd38",5,0.685,"Accuracy","Mixed",0.74246221452046,1,"congruent"
"5a89cc2c000dab00018cbd38",6,0.813,"Accuracy","Mixed",1.1560543441676,1,"incongruent"
"5a89cc2c000dab00018cbd38",7,1.288,"Accuracy","Mixed",1.62626657284665,1,"incongruent"
"5a89cc2c000dab00018cbd38",2,0.652,"Speed","Mixed",-1.21579699184093,1,"congruent"
"5a89cc2c000dab00018cbd38",4,0.457,"Speed","Mixed",-0.543875660360703,0,"incongruent"
"5a89cc2c000dab00018cbd38",6,0.306,"Speed","Mixed",0.144854763019617,1,"congruent"
"5a89cc2c000dab00018cbd38",8,0.539,"Speed","Mixed",0.789793078554945,0,"incongruent"
"5a89cc2c000dab00018cbd38",1,1.853,"Accuracy","Mixed",-1.45687475725022,1,"incongruent"
"5a89cc2c000dab00018cbd38",2,1.04,"Accuracy","Mixed",-0.637210354858614,1,"congruent"
"5a89cc2c000dab00018cbd38",3,1.473,"Accuracy","Mixed",-0.0665859193026652,1,"incongruent"
"5a89cc2c000dab00018cbd38",4,1.477,"Accuracy","Mixed",0.695573695009661,1,"incongruent"
"5a89cc2c000dab00018cbd38",5,0.931,"Accuracy","Mixed",1.45950268741673,1,"congruent"
"5a89cc2c000dab00018cbd38",6,1.576,"Accuracy","Mixed",1.98191156989082,1,"incongruent"
"5a89cc2c000dab00018cbd38",2,1.81,"Accuracy","Mixed",-0.799550795051663,1,"congruent"
"5a89cc2c000dab00018cbd38",3,0.902,"Accuracy","Mixed",0.111678923743108,1,"incongruent"
"5a89cc2c000dab00018cbd38",4,1.363,"Accuracy","Mixed",0.621259815030281,1,"incongruent"
"5a89cc2c000dab00018cbd38",5,0.753,"Accuracy","Mixed",1.33476153173706,1,"congruent"
"5a89cc2c000dab00018cbd38",6,1.066,"Accuracy","Mixed",1.7784330889949,1,"incongruent"
"5a89cc2c000dab00018cbd38",1,0.971,"Accuracy","Mixed",-1.45687475725022,1,"congruent"
"5a89cc2c000dab00018cbd38",2,1.041,"Accuracy","Mixed",-1.02735822475036,1,"incongruent"
"5a89cc2c000dab00018cbd38",3,0.743,"Accuracy","Mixed",-0.45629144467072,1,"congruent"
"5a89cc2c000dab00018cbd38",4,0.871,"Accuracy","Mixed",-0.0170433326497455,1,"incongruent"
"5a89cc2c000dab00018cbd38",5,0.931,"Accuracy","Mixed",0.478824878403137,1,"incongruent"
"5a89cc2c000dab00018cbd38",6,1.032,"Accuracy","Mixed",1.00123376087723,1,"incongruent"
"5a89cc2c000dab00018cbd38",7,1.555,"Accuracy","Mixed",1.56831944024368,1,"congruent"
"5a89cc2c000dab00018cbd38",1,1.072,"Speed","Mixed",-1.45687475725022,1,"congruent"
"5a89cc2c000dab00018cbd38",3,0.45,"Speed","Mixed",-0.694715142937896,0,"incongruent"
"5a89cc2c000dab00018cbd38",4,0.447,"Speed","Mixed",-0.404979479923054,1,"incongruent"
"5a89cc2c000dab00018cbd38",9,0.449,"Speed","Mixed",0.946383039940066,1,"congruent"
"5a89cc2c000dab00018cbd38",1,1.82,"Accuracy","Mixed",-1.45687475725022,1,"congruent"
"5a89cc2c000dab00018cbd38",2,0.947,"Accuracy","Mixed",-0.651807724140278,1,"incongruent"
"5a89cc2c000dab00018cbd38",3,1.114,"Accuracy","Mixed",-0.1223213292872,1,"congruent"
"5a89cc2c000dab00018cbd38",4,1.347,"Accuracy","Mixed",0.481036601021571,1,"incongruent"
"5a89cc2c000dab00018cbd38",5,0.907,"Accuracy","Mixed",1.18746080534936,1,"congruent"
"5a89cc2c000dab00018cbd38",6,0.785,"Accuracy","Mixed",1.69925341925497,1,"incongruent"
"5a89cc2c000dab00018cbd38",7,1.171,"Accuracy","Mixed",2.15708000127079,1,"incongruent"
"5a89cc2c000dab00018cbd38",1,1.152,"Accuracy","Mixed",-1.45687475725022,1,"congruent"
"5a89cc2c000dab00018cbd38",2,1.282,"Accuracy","Mixed",-0.947293865963049,1,"incongruent"
"5a89cc2c000dab00018cbd38",3,1.262,"Accuracy","Mixed",-0.269622055674898,1,"congruent"
"5a89cc2c000dab00018cbd38",4,1.063,"Accuracy","Mixed",0.399202864139517,1,"incongruent"
"5a89cc2c000dab00018cbd38",6,0.712,"Accuracy","Mixed",1.51833450906708,1,"incongruent"
"5a89cc2c000dab00018cbd38",7,0.576,"Accuracy","Mixed",1.94386994085376,1,"congruent"
"5a89cc2c000dab00018cbd38",1,0.54,"Speed","Mixed",-1.45687475725022,0,"incongruent"
"5a89cc2c000dab00018cbd38",4,0.262,"Speed","Mixed",-0.742930696019755,1,"incongruent"
"5a89cc2c000dab00018cbd38",6,0.339,"Speed","Mixed",-0.300586172332973,0,"incongruent"
"5a89cc2c000dab00018cbd38",7,0.261,"Speed","Mixed",-0.0400452478814582,1,"incongruent"
"5a89cc2c000dab00018cbd38",8,0.254,"Speed","Mixed",0.185992803722488,0,"incongruent"
"5a89cc2c000dab00018cbd38",9,0.274,"Speed","Mixed",0.408934443660626,1,"incongruent"
"5a89cc2c000dab00018cbd38",1,1.141,"Accuracy","Mixed",-1.45687475725022,1,"incongruent"
"5a89cc2c000dab00018cbd38",2,0.789,"Accuracy","Mixed",-0.952159655723603,1,"congruent"
"5a89cc2c000dab00018cbd38",3,1.098,"Accuracy","Mixed",-0.492563695613037,1,"incongruent"
"5a89cc2c000dab00018cbd38",4,0.676,"Accuracy","Mixed",0.103716722316746,1,"incongruent"
"5a89cc2c000dab00018cbd38",5,0.627,"Accuracy","Mixed",0.513327751250707,1,"congruent"
"5a89cc2c000dab00018cbd38",6,2.021,"Accuracy","Mixed",0.901263898524015,1,"incongruent"
"5a89cc2c000dab00018cbd38",1,1.126,"Accuracy","Mixed",-1.45687475725022,1,"congruent"
"5a89cc2c000dab00018cbd38",2,1.072,"Accuracy","Mixed",-0.958794823578905,1,"incongruent"
"5a89cc2c000dab00018cbd38",3,0.603,"Accuracy","Mixed",-0.374015363264979,1,"congruent"
"5a89cc2c000dab00018cbd38",4,1.049,"Accuracy","Mixed",0.00330451543984646,1,"incongruent"
"5a89cc2c000dab00018cbd38",5,1.291,"Accuracy","Mixed",0.577910051708977,1,"incongruent"
"5a89cc2c000dab00018cbd38",6,1.09,"Accuracy","Mixed",1.25956296271031,1,"incongruent"
"5a89cc2c000dab00018cbd38",7,0.679,"Accuracy","Mixed",1.8523046244506,1,"congruent"
"5a89cc2c000dab00018cbd38",1,1.03,"Accuracy","Mixed",-1.45687475725022,1,"incongruent"
"5a89cc2c000dab00018cbd38",2,0.845,"Accuracy","Mixed",-1.00125989785284,1,"congruent"
"5a89cc2c000dab00018cbd38",3,0.938,"Accuracy","Mixed",-0.51689264441581,1,"incongruent"
"5a89cc2c000dab00018cbd38",4,0.756,"Accuracy","Mixed",0.00861264972408785,1,"congruent"
"5a89cc2c000dab00018cbd38",5,0.68,"Accuracy","Mixed",0.453611240552991,1,"congruent"
"5a89cc2c000dab00018cbd38",6,0.916,"Accuracy","Mixed",0.864991647581698,1,"incongruent"
"5a89cc2c000dab00018cbd38",1,0.722,"Speed","Mixed",-1.45687475725022,1,"incongruent"
"5a89cc2c000dab00018cbd38",3,0.436,"Speed","Mixed",-0.65976992556664,0,"incongruent"
"5a89cc2c000dab00018cbd38",5,0.547,"Speed","Mixed",-0.0833950112027629,0,"incongruent"
"5a89cc2c000dab00018cbd38",9,0.387,"Speed","Mixed",1.06448902776444,1,"congruent"
"5a89cc2c000dab00018cbd38",11,0.39,"Speed","Mixed",1.62493953927559,1,"congruent"
"5a89cc2c000dab00018cbd38",2,0.267,"Speed","Mixed",-1.1397137337668,0,"incongruent"
"5a89cc2c000dab00018cbd38",3,0.283,"Speed","Mixed",-0.911021615020733,1,"incongruent"
"5a89cc2c000dab00018cbd38",4,0.269,"Speed","Mixed",-0.675251983895678,0,"incongruent"
"5a89cc2c000dab00018cbd38",6,0.403,"Speed","Mixed",-0.180268461890168,1,"incongruent"
"5a89cc2c000dab00018cbd38",8,0.365,"Speed","Mixed",0.340371042489175,1,"congruent"
"5a89cc2c000dab00018cbd38",1,2.531,"Accuracy","Mixed",-1.45687475725022,1,"congruent"
"5a89cc2c000dab00018cbd38",2,0.946,"Accuracy","Mixed",-0.337300767798976,1,"incongruent"
"5a89cc2c000dab00018cbd38",3,0.814,"Accuracy","Mixed",0.191743282530416,1,"congruent"
"5a89cc2c000dab00018cbd38",4,1.318,"Accuracy","Mixed",0.662397855733152,1,"incongruent"
"5a89cc2c000dab00018cbd38",5,0.936,"Accuracy","Mixed",1.35599406887403,1,"incongruent"
"5a89cc2c000dab00018cbd38",2,0.359,"Speed","Mixed",-1.10344148282448,1,"incongruent"
"5a89cc2c000dab00018cbd38",8,0.442,"Speed","Mixed",0.520847608153382,0,"incongruent"
"5a89cc2c000dab00018cbd38",10,0.314,"Speed","Mixed",1.0423718015801,1,"congruent"
"5a89cc2c000dab00018cbd38",1,1.797,"Accuracy","Mixed",-1.45687475725022,1,"congruent"
"5a89cc2c000dab00018cbd38",2,0.963,"Accuracy","Mixed",-0.661981648185074,1,"incongruent"
"5a89cc2c000dab00018cbd38",3,0.759,"Accuracy","Mixed",-0.125417740953007,1,"incongruent"
"5a89cc2c000dab00018cbd38",4,0.802,"Accuracy","Mixed",0.320907883446956,1,"congruent"
"5a89cc2c000dab00018cbd38",5,1.028,"Accuracy","Mixed",0.786254322365451,1,"incongruent"
"5a89cc2c000dab00018cbd38",4,0.43,"Speed","Mixed",-0.74646945220925,1,"incongruent"
"5a89cc2c000dab00018cbd38",7,0.365,"Speed","Mixed",0.0165748511504499,1,"congruent"
"5a89cc2c000dab00018cbd38",9,0.324,"Speed","Mixed",0.53898373362454,1,"incongruent"
"5a89cc2c000dab00018cbd38",13,0.268,"Speed","Mixed",1.61211154808867,0,"incongruent"
"5a89cc2c000dab00018cbd38",1,0.63,"Speed","Mixed",-1.45687475725022,0,"incongruent"
"5a89cc2c000dab00018cbd38",4,0.263,"Speed","Mixed",-0.77389481267783,0,"incongruent"
"5a89cc2c000dab00018cbd38",9,0.29,"Speed","Mixed",0.333293530110186,1,"incongruent"
"5a89cc2c000dab00018cbd38",12,0.283,"Speed","Mixed",1.06404668324075,1,"congruent"
"5a89cc2c000dab00018cbd38",1,0.602,"Speed","Mixed",-1.45687475725022,1,"incongruent"
"5a89cc2c000dab00018cbd38",3,0.277,"Speed","Mixed",-0.958794823578905,1,"incongruent"
"5a89cc2c000dab00018cbd38",9,0.302,"Speed","Mixed",0.55269641385883,0,"incongruent"
"5a89cc2c000dab00018cbd38",10,0.402,"Speed","Mixed",0.796870590933934,1,"incongruent"
"5a89cc2c000dab00018cbd38",12,0.313,"Speed","Mixed",1.35289765720822,0,"incongruent"
"5a89cc2c000dab00018cbd38",14,0.357,"Speed","Mixed",1.84345773397686,1,"incongruent"
"5a89cc2c000dab00018cbd38",4,0.293,"Speed","Mixed",-0.801320173146411,1,"incongruent"
"5a89cc2c000dab00018cbd38",10,0.292,"Speed","Mixed",0.621259815030281,1,"incongruent"
"5a89cc2c000dab00018cbd38",12,0.437,"Speed","Mixed",1.10828113560943,0,"incongruent"
"5a89cc2c000dab00018cbd38",14,0.283,"Speed","Mixed",1.69881107473128,1,"congruent"
"5a89cc2c000dab00018cbd38",1,1.681,"Accuracy","Mixed",-1.45687475725022,1,"congruent"
"5a89cc2c000dab00018cbd38",2,0.562,"Accuracy","Mixed",-0.713293612932741,1,"incongruent"
"5a89cc2c000dab00018cbd38",3,0.948,"Accuracy","Mixed",-0.354109859699074,1,"incongruent"
"5a89cc2c000dab00018cbd38",4,0.956,"Accuracy","Mixed",0.175818879677692,1,"incongruent"
"5a89cc2c000dab00018cbd38",5,0.964,"Accuracy","Mixed",0.709286375243951,1,"congruent"
"5a89cc2c000dab00018cbd38",1,0.482,"Speed","Mixed",-1.45687475725022,1,"congruent"
"5a89cc2c000dab00018cbd38",4,0.289,"Speed","Mixed",-0.770798401012023,1,"congruent"
"5a89cc2c000dab00018cbd38",6,0.385,"Speed","Mixed",-0.257236409011668,1,"incongruent"
"5a89cc2c000dab00018cbd38",8,0.52,"Speed","Mixed",0.890205285431845,1,"congruent"
"5a89cc2c000dab00018cbd38",1,1.632,"Accuracy","Mixed",-1.45687475725022,1,"congruent"
"5a89cc2c000dab00018cbd38",2,1.165,"Accuracy","Mixed",-0.734968494593393,1,"incongruent"
"5a89cc2c000dab00018cbd38",3,0.921,"Accuracy","Mixed",-0.109050993576596,1,"congruent"
"5a89cc2c000dab00018cbd38",4,1.008,"Accuracy","Mixed",0.408934443660626,1,"incongruent"
"5a89cc2c000dab00018cbd38",5,1.111,"Accuracy","Mixed",0.965403854458598,1,"incongruent"
"5a89cc2c000dab00018cbd38",1,0.396,"Speed","Mixed",-1.45687475725022,1,"congruent"
"5a89cc2c000dab00018cbd38",4,0.287,"Speed","Mixed",-0.676136672943051,1,"congruent"
"5a89cc2c000dab00018cbd38",6,0.372,"Speed","Mixed",-0.14974668975578,0,"incongruent"
"5a89cc2c000dab00018cbd38",8,0.326,"Speed","Mixed",0.418666023181735,0,"incongruent"
"5a89cc2c000dab00018cbd38",13,0.396,"Speed","Mixed",1.67580915949957,0,"incongruent"
"5a89cc2c000dab00018cbd38",1,0.472,"Speed","Mixed",-1.45687475725022,0,"incongruent"
"5a89cc2c000dab00018cbd38",4,0.379,"Speed","Mixed",-0.751335241969804,1,"incongruent"
"5a89cc2c000dab00018cbd38",5,0.475,"Speed","Mixed",-0.473100536570818,0,"incongruent"
"5a89cc2c000dab00018cbd38",7,0.513,"Speed","Mixed",0.108140167553614,1,"incongruent"
"5a89cc2c000dab00018cbd38",9,0.422,"Speed","Mixed",0.793774179268126,0,"incongruent"
"5a89cc2c000dab00018cbd38",11,0.49,"Speed","Mixed",1.35466703530297,1,"incongruent"
"5a89cc2c000dab00018cbd38",1,1.757,"Accuracy","Mixed",-1.45687475725022,1,"congruent"
"5a89cc2c000dab00018cbd38",2,1.056,"Accuracy","Mixed",-0.679675429132545,1,"incongruent"
"5a89cc2c000dab00018cbd38",3,1.075,"Accuracy","Mixed",-0.101973481197608,1,"congruent"
"5a89cc2c000dab00018cbd38",4,0.706,"Accuracy","Mixed",0.484133012687379,1,"incongruent"
"5a89cc2c000dab00018cbd38",5,0.977,"Accuracy","Mixed",0.907014377331943,1,"incongruent"
"5a89cc2c000dab00018cbd38",6,0.823,"Accuracy","Mixed",1.44977110789562,1,"congruent"
"5a89cc2c000dab00018cbd38",7,0.986,"Accuracy","Mixed",1.92440678181154,1,"congruent"
"5a89cc2c000dab00018cbd38",2,0.271,"Speed","Mixed",-1.28834149372556,0,"incongruent"
"5a89cc2c000dab00018cbd38",5,0.271,"Speed","Mixed",-0.571743365352971,1,"incongruent"
"5a89cc2c000dab00018cbd38",11,0.303,"Speed","Mixed",0.838893320684178,1,"congruent"
"5a89cc2c000dab00018cbd38",1,1.682,"Accuracy","Mixed",-1.45687475725022,1,"congruent"
"5a89cc2c000dab00018cbd38",2,0.939,"Accuracy","Mixed",-0.712851268409054,1,"incongruent"
"5a89cc2c000dab00018cbd38",3,1.218,"Accuracy","Mixed",-0.18690362974547,1,"congruent"
"5a89cc2c000dab00018cbd38",4,0.806,"Accuracy","Mixed",0.462458131026727,1,"incongruent"
"5a89cc2c000dab00018cbd38",1,1.363,"Accuracy","Mixed",-1.45687475725022,1,"congruent"
"5a89cc2c000dab00018cbd38",2,0.771,"Accuracy","Mixed",-0.853959171465138,1,"incongruent"
"5a89cc2c000dab00018cbd38",3,0.971,"Accuracy","Mixed",-0.402325412780933,1,"congruent"
"5a89cc2c000dab00018cbd38",4,1.231,"Accuracy","Mixed",0.137777250640628,1,"incongruent"
"5a89cc2c000dab00018cbd38",5,1.962,"Accuracy","Mixed",0.792889490220753,1,"congruent"
"5a89cc2c000dab00018cbd38",6,1.456,"Accuracy","Mixed",1.77135557661592,1,"incongruent"
"5b57d2acbc04d60001e5e76e",1,1.124,"Accuracy","Mixed",-1.45687475725022,1,"incongruent"
"5b57d2acbc04d60001e5e76e",2,0.768,"Accuracy","Mixed",-0.959679512626279,1,"congruent"
"5b57d2acbc04d60001e5e76e",3,0.718,"Accuracy","Mixed",-0.509372787513134,1,"congruent"
"5b57d2acbc04d60001e5e76e",4,0.796,"Accuracy","Mixed",-0.081183288584329,1,"incongruent"
"5b57d2acbc04d60001e5e76e",5,0.818,"Accuracy","Mixed",0.381509083192045,1,"incongruent"
"5b57d2acbc04d60001e5e76e",6,0.746,"Accuracy","Mixed",0.853933034489529,1,"incongruent"
"5b57d2acbc04d60001e5e76e",7,0.927,"Accuracy","Mixed",1.29450818008156,1,"incongruent"
"5b57d2acbc04d60001e5e76e",8,0.774,"Accuracy","Mixed",1.81514768446091,1,"congruent"
"5b57d2acbc04d60001e5e76e",1,0.982,"Accuracy","Mixed",-1.45687475725022,1,"incongruent"
"5b57d2acbc04d60001e5e76e",2,1.01,"Accuracy","Mixed",-1.0224924349898,1,"congruent"
"5b57d2acbc04d60001e5e76e",3,0.653,"Accuracy","Mixed",-0.465138335144456,1,"congruent"
"5b57d2acbc04d60001e5e76e",4,1.369,"Accuracy","Mixed",-0.0657012302552916,1,"incongruent"
"5b57d2acbc04d60001e5e76e",5,0.693,"Accuracy","Mixed",0.650454553593609,1,"incongruent"
"5b57d2acbc04d60001e5e76e",6,0.74,"Accuracy","Mixed",1.06758543943024,1,"incongruent"
"5b57d2acbc04d60001e5e76e",7,0.757,"Accuracy","Mixed",1.50550651788016,1,"congruent"
"5b57d2acbc04d60001e5e76e",8,0.689,"Accuracy","Mixed",1.95094745323275,1,"incongruent"
"5b57d2acbc04d60001e5e76e",9,0.654,"Accuracy","Mixed",2.36630896097464,1,"congruent"
"5b57d2acbc04d60001e5e76e",1,0.838,"Accuracy","Mixed",-1.45687475725022,1,"congruent"
"5b57d2acbc04d60001e5e76e",2,0.661,"Accuracy","Mixed",-1.0861900464007,1,"incongruent"
"5b57d2acbc04d60001e5e76e",3,0.812,"Accuracy","Mixed",-0.68321418532204,1,"incongruent"
"5b57d2acbc04d60001e5e76e",4,0.835,"Accuracy","Mixed",-0.213444301166677,1,"incongruent"
"5b57d2acbc04d60001e5e76e",5,0.871,"Accuracy","Mixed",0.266499507033482,1,"congruent"
"5b57d2acbc04d60001e5e76e",6,0.963,"Accuracy","Mixed",0.762367718086365,1,"incongruent"
"5b57d2acbc04d60001e5e76e",1,0.662,"Speed","Mixed",-1.45687475725022,1,"congruent"
"5b57d2acbc04d60001e5e76e",2,0.514,"Speed","Mixed",-1.16404268256957,0,"incongruent"
"5b57d2acbc04d60001e5e76e",3,0.396,"Speed","Mixed",-0.82609146647287,0,"incongruent"
"5b57d2acbc04d60001e5e76e",4,0.382,"Speed","Mixed",-0.540336904171209,0,"incongruent"
"5b57d2acbc04d60001e5e76e",5,0.43,"Speed","Mixed",-0.260775165201163,1,"congruent"
"5b57d2acbc04d60001e5e76e",6,0.358,"Speed","Mixed",0.0400191109058494,1,"congruent"
"5b57d2acbc04d60001e5e76e",7,0.417,"Speed","Mixed",0.308964581307413,1,"incongruent"
"5b57d2acbc04d60001e5e76e",5,0.423,"Speed","Mixed",-0.67082853865881,1,"incongruent"
"5b57d2acbc04d60001e5e76e",6,0.256,"Speed","Mixed",-0.373130674217605,0,"incongruent"
"5b57d2acbc04d60001e5e76e",11,0.28,"Speed","Mixed",0.788023700460198,1,"incongruent"
"5b57d2acbc04d60001e5e76e",1,0.742,"Speed","Mixed",-1.45687475725022,0,"incongruent"
"5b57d2acbc04d60001e5e76e",2,0.592,"Speed","Mixed",-1.12865512067463,1,"congruent"
"5b57d2acbc04d60001e5e76e",4,0.514,"Speed","Mixed",-0.572628054400344,1,"congruent"
"5b57d2acbc04d60001e5e76e",5,0.431,"Speed","Mixed",-0.234676838303642,1,"congruent"
"5b57d2acbc04d60001e5e76e",6,0.299,"Speed","Mixed",0.0665597823270563,0,"incongruent"
"5b57d2acbc04d60001e5e76e",7,0.287,"Speed","Mixed",0.3094069258311,0,"incongruent"
"5b57d2acbc04d60001e5e76e",1,1.111,"Accuracy","Mixed",-1.45687475725022,1,"incongruent"
"5b57d2acbc04d60001e5e76e",2,0.661,"Accuracy","Mixed",-0.965429991434207,1,"congruent"
"5b57d2acbc04d60001e5e76e",3,1.105,"Accuracy","Mixed",-0.562454130355548,1,"incongruent"
"5b57d2acbc04d60001e5e76e",4,0.766,"Accuracy","Mixed",0.0369226992400419,1,"congruent"
"5b57d2acbc04d60001e5e76e",5,0.827,"Accuracy","Mixed",0.486344735305813,1,"congruent"
"5b57d2acbc04d60001e5e76e",6,0.816,"Accuracy","Mixed",0.962749787316477,1,"incongruent"
"5b57d2acbc04d60001e5e76e",1,0.646,"Speed","Mixed",-1.45687475725022,1,"incongruent"
"5b57d2acbc04d60001e5e76e",2,0.349,"Speed","Mixed",-1.17112019494856,1,"congruent"
"5b57d2acbc04d60001e5e76e",5,0.373,"Speed","Mixed",-0.450983310386479,0,"incongruent"
"5b57d2acbc04d60001e5e76e",6,0.398,"Speed","Mixed",-0.175402672129614,0,"incongruent"
"5b57d2acbc04d60001e5e76e",7,0.308,"Speed","Mixed",0.111236579219421,1,"congruent"
"5b57d2acbc04d60001e5e76e",8,0.461,"Speed","Mixed",0.358064823436646,1,"incongruent"
"5b57d2acbc04d60001e5e76e",1,1.096,"Accuracy","Mixed",-1.45687475725022,1,"congruent"
"5b57d2acbc04d60001e5e76e",2,0.687,"Accuracy","Mixed",-0.972065159289509,1,"incongruent"
"5b57d2acbc04d60001e5e76e",3,0.739,"Accuracy","Mixed",-0.557588340594994,1,"incongruent"
"5b57d2acbc04d60001e5e76e",4,0.691,"Accuracy","Mixed",-0.120109606668766,1,"congruent"
"5b57d2acbc04d60001e5e76e",5,0.749,"Accuracy","Mixed",0.296136590120496,1,"incongruent"
"5b57d2acbc04d60001e5e76e",6,1.355,"Accuracy","Mixed",0.738038769283592,1,"incongruent"
"5b57d2acbc04d60001e5e76e",7,0.707,"Accuracy","Mixed",1.44800172980088,1,"incongruent"
"5b57d2acbc04d60001e5e76e",1,1.159,"Accuracy","Mixed",-1.45687475725022,1,"congruent"
"5b57d2acbc04d60001e5e76e",2,0.992,"Accuracy","Mixed",-0.944197454297241,1,"incongruent"
"5b57d2acbc04d60001e5e76e",3,0.783,"Accuracy","Mixed",-0.394805555878258,1,"incongruent"
"5b57d2acbc04d60001e5e76e",4,0.629,"Accuracy","Mixed",0.0621363370901885,1,"incongruent"
"5b57d2acbc04d60001e5e76e",5,0.693,"Accuracy","Mixed",0.45095717341087,1,"congruent"
"5b57d2acbc04d60001e5e76e",6,0.629,"Accuracy","Mixed",0.868088059247506,1,"congruent"
"5b57d2acbc04d60001e5e76e",7,0.688,"Accuracy","Mixed",1.25690889556819,1,"congruent"
"5b57d2acbc04d60001e5e76e",8,0.877,"Accuracy","Mixed",1.67182805878639,1,"incongruent"
"5b57d2acbc04d60001e5e76e",1,1.071,"Accuracy","Mixed",-1.45687475725022,1,"incongruent"
"5b57d2acbc04d60001e5e76e",2,0.685,"Accuracy","Mixed",-0.983123772381678,1,"congruent"
"5b57d2acbc04d60001e5e76e",3,1.314,"Accuracy","Mixed",-0.569531642734537,1,"congruent"
"5b57d2acbc04d60001e5e76e",4,0.703,"Accuracy","Mixed",0.122295192311591,1,"incongruent"
"5b57d2acbc04d60001e5e76e",5,0.806,"Accuracy","Mixed",0.543849523385095,1,"incongruent"
"5b57d2acbc04d60001e5e76e",6,0.699,"Accuracy","Mixed",1.01096534039834,1,"incongruent"
"5b57d2acbc04d60001e5e76e",1,0.605,"Speed","Mixed",-1.45687475725022,1,"incongruent"
"5b57d2acbc04d60001e5e76e",2,0.286,"Speed","Mixed",-1.18925632041972,1,"congruent"
"5b57d2acbc04d60001e5e76e",3,0.356,"Speed","Mixed",-0.952159655723603,1,"incongruent"
"5b57d2acbc04d60001e5e76e",4,0.448,"Speed","Mixed",-0.684098874369413,1,"incongruent"
"5b57d2acbc04d60001e5e76e",5,0.488,"Speed","Mixed",-0.375342396836039,1,"congruent"
"5b57d2acbc04d60001e5e76e",6,0.33,"Speed","Mixed",-0.0488921383551939,0,"incongruent"
"5b57d2acbc04d60001e5e76e",10,0.39,"Speed","Mixed",1.04635290229328,1,"congruent"
"5b57d2acbc04d60001e5e76e",2,0.374,"Speed","Mixed",-1.19721852184608,1,"congruent"
"5b57d2acbc04d60001e5e76e",3,0.311,"Speed","Mixed",-0.921195539065529,0,"incongruent"
"5b57d2acbc04d60001e5e76e",10,0.505,"Speed","Mixed",0.484133012687379,1,"incongruent"
"5b57d2acbc04d60001e5e76e",11,0.454,"Speed","Mixed",0.818103128070899,1,"incongruent"
"5b57d2acbc04d60001e5e76e",1,0.629,"Speed","Mixed",-1.45687475725022,0,"incongruent"
"5b57d2acbc04d60001e5e76e",8,0.283,"Speed","Mixed",0.25721027203606,1,"congruent"
"5b57d2acbc04d60001e5e76e",1,0.61,"Speed","Mixed",-1.45687475725022,1,"congruent"
"5b57d2acbc04d60001e5e76e",2,0.322,"Speed","Mixed",-1.18704459780128,1,"incongruent"
"5b57d2acbc04d60001e5e76e",9,0.685,"Speed","Mixed",0.400972242234264,1,"congruent"
"5b57d2acbc04d60001e5e76e",10,0.465,"Speed","Mixed",0.814564371881405,1,"incongruent"
"5b57d2acbc04d60001e5e76e",1,1.174,"Accuracy","Mixed",-1.45687475725022,1,"incongruent"
"5b57d2acbc04d60001e5e76e",2,0.706,"Accuracy","Mixed",-0.93756228644194,1,"congruent"
"5b57d2acbc04d60001e5e76e",3,0.644,"Accuracy","Mixed",-0.514680921797376,1,"congruent"
"5b57d2acbc04d60001e5e76e",4,0.857,"Accuracy","Mixed",-0.119224917621392,1,"incongruent"
"5b57d2acbc04d60001e5e76e",5,0.858,"Accuracy","Mixed",0.370450470099876,1,"incongruent"
"5b57d2acbc04d60001e5e76e",6,0.674,"Accuracy","Mixed",0.860568202344831,1,"congruent"
"5b57d2acbc04d60001e5e76e",7,0.873,"Accuracy","Mixed",1.26929454223142,1,"congruent"
"5b57d2acbc04d60001e5e76e",8,0.707,"Accuracy","Mixed",1.76604744233167,1,"incongruent"
"5b57d2acbc04d60001e5e76e",9,1.21,"Accuracy","Mixed",2.18937115149992,1,"incongruent"
"5b57d2acbc04d60001e5e76e",1,1.321,"Accuracy","Mixed",-1.45687475725022,1,"incongruent"
"5b57d2acbc04d60001e5e76e",2,0.76,"Accuracy","Mixed",-0.872537641459983,1,"congruent"
"5b57d2acbc04d60001e5e76e",3,0.946,"Accuracy","Mixed",-0.425769672536332,1,"incongruent"
"5b57d2acbc04d60001e5e76e",4,0.784,"Accuracy","Mixed",0.103274377793059,1,"incongruent"
"5b57d2acbc04d60001e5e76e",5,0.762,"Accuracy","Mixed",0.560658615285192,1,"congruent"
"5b57d2acbc04d60001e5e76e",6,0.866,"Accuracy","Mixed",1.00831127325622,1,"incongruent"
"5b57d2acbc04d60001e5e76e",1,0.776,"Accuracy","Mixed",-1.45687475725022,1,"congruent"
"5b57d2acbc04d60001e5e76e",2,1.202,"Accuracy","Mixed",-1.11361540686928,1,"incongruent"
"5b57d2acbc04d60001e5e76e",3,1.152,"Accuracy","Mixed",-0.471331158476071,1,"incongruent"
"5b57d2acbc04d60001e5e76e",4,0.586,"Accuracy","Mixed",0.148835863732798,1,"congruent"
"5b57d2acbc04d60001e5e76e",5,0.589,"Accuracy","Mixed",0.518635885534948,1,"congruent"
"5b57d2acbc04d60001e5e76e",6,0.719,"Accuracy","Mixed",0.889762940908158,1,"incongruent"
"5b57d2acbc04d60001e5e76e",7,0.703,"Accuracy","Mixed",1.31839478436065,1,"congruent"
"5b57d2acbc04d60001e5e76e",1,0.757,"Accuracy","Mixed",-1.45687475725022,1,"congruent"
"5b57d2acbc04d60001e5e76e",2,1.324,"Accuracy","Mixed",-1.12201995281933,1,"incongruent"
"5b57d2acbc04d60001e5e76e",3,0.903,"Accuracy","Mixed",-0.425769672536332,1,"incongruent"
"5b57d2acbc04d60001e5e76e",5,1.739,"Accuracy","Mixed",0.605777756701244,1,"congruent"
"5b57d2acbc04d60001e5e76e",6,1.029,"Accuracy","Mixed",1.48560101431425,1,"incongruent"
"5b57d2acbc04d60001e5e76e",7,0.932,"Accuracy","Mixed",2.05135966010965,1,"incongruent"
"5b57d2acbc04d60001e5e76e",1,0.693,"Speed","Mixed",-1.45687475725022,1,"congruent"
"5b57d2acbc04d60001e5e76e",2,0.291,"Speed","Mixed",-1.15033000233528,0,"incongruent"
"5b57d2acbc04d60001e5e76e",4,0.751,"Speed","Mixed",-0.714178301980114,1,"congruent"
"5b57d2acbc04d60001e5e76e",5,0.317,"Speed","Mixed",-0.271391433769645,0,"incongruent"
"5b57d2acbc04d60001e5e76e",6,0.5,"Speed","Mixed",-0.0205820888392398,1,"congruent"
"5b57d2acbc04d60001e5e76e",8,0.33,"Speed","Mixed",0.525713397913936,1,"incongruent"
"5b57d2acbc04d60001e5e76e",10,0.549,"Speed","Mixed",0.967173232553345,1,"incongruent"
"5b57d2acbc04d60001e5e76e",11,0.386,"Speed","Mixed",1.32060650697908,0,"incongruent"
"5b57d2acbc04d60001e5e76e",1,0.862,"Speed","Mixed",-1.45687475725022,1,"incongruent"
"5b57d2acbc04d60001e5e76e",2,0.351,"Speed","Mixed",-1.07557377783222,1,"congruent"
"5b57d2acbc04d60001e5e76e",3,0.709,"Speed","Mixed",-0.809724719096459,1,"incongruent"
"5b57d2acbc04d60001e5e76e",4,0.508,"Speed","Mixed",-0.385516320880835,1,"incongruent"
"5b57d2acbc04d60001e5e76e",5,0.554,"Speed","Mixed",-0.0502191719262542,1,"congruent"
"5b57d2acbc04d60001e5e76e",6,0.642,"Speed","Mixed",0.305425825117919,1,"incongruent"
"5b57d2acbc04d60001e5e76e",8,0.396,"Speed","Mixed",0.991502181356118,1,"incongruent"
"5b57d2acbc04d60001e5e76e",1,0.855,"Accuracy","Mixed",-1.45687475725022,1,"incongruent"
"5b57d2acbc04d60001e5e76e",2,0.806,"Accuracy","Mixed",-1.07867018949802,1,"congruent"
"5b57d2acbc04d60001e5e76e",3,0.802,"Accuracy","Mixed",-0.611554372484781,1,"incongruent"
"5b57d2acbc04d60001e5e76e",4,1.036,"Accuracy","Mixed",-0.146207933566286,1,"incongruent"
"5b57d2acbc04d60001e5e76e",5,0.902,"Accuracy","Mixed",0.422647123894916,1,"congruent"
"5b57d2acbc04d60001e5e76e",6,1.137,"Accuracy","Mixed",0.932228015182089,1,"incongruent"
"5b57d2acbc04d60001e5e76e",1,0.71,"Speed","Mixed",-1.45687475725022,1,"incongruent"
"5b57d2acbc04d60001e5e76e",3,0.362,"Speed","Mixed",-0.937119941918253,1,"incongruent"
"5b57d2acbc04d60001e5e76e",6,0.749,"Speed","Mixed",-0.271391433769645,1,"congruent"
"5b57d2acbc04d60001e5e76e",10,0.342,"Speed","Mixed",0.830931119257816,1,"incongruent"
"5b57d2acbc04d60001e5e76e",14,0.284,"Speed","Mixed",1.83328380993206,0,"incongruent"
"5b57d2acbc04d60001e5e76e",1,1.249,"Accuracy","Mixed",-1.45687475725022,1,"incongruent"
"5b57d2acbc04d60001e5e76e",2,0.798,"Accuracy","Mixed",-0.904386447165431,1,"congruent"
"5b57d2acbc04d60001e5e76e",3,0.747,"Accuracy","Mixed",-0.440809386341683,1,"incongruent"
"5b57d2acbc04d60001e5e76e",4,0.692,"Accuracy","Mixed",0.000208103774038982,1,"congruent"
"5b57d2acbc04d60001e5e76e",5,0.876,"Accuracy","Mixed",0.416896645086988,1,"incongruent"
"5b57d2acbc04d60001e5e76e",6,0.599,"Accuracy","Mixed",0.914976578758305,1,"congruent"
"5b57d2acbc04d60001e5e76e",7,0.839,"Accuracy","Mixed",1.29052707936838,1,"congruent"
"5b57d2acbc04d60001e5e76e",1,0.861,"Accuracy","Mixed",-1.45687475725022,1,"congruent"
"5b57d2acbc04d60001e5e76e",2,0.955,"Accuracy","Mixed",-1.0760161223559,1,"incongruent"
"5b57d2acbc04d60001e5e76e",3,0.803,"Accuracy","Mixed",-0.54299097131333,1,"incongruent"
"5b57d2acbc04d60001e5e76e",4,0.756,"Accuracy","Mixed",-0.0772021878711479,1,"incongruent"
"5b57d2acbc04d60001e5e76e",5,0.628,"Accuracy","Mixed",0.367796402957755,1,"congruent"
"5b57d2acbc04d60001e5e76e",6,0.537,"Accuracy","Mixed",0.75617489475475,1,"congruent"
"5b57d2acbc04d60001e5e76e",1,0.462,"Speed","Mixed",-1.45687475725022,0,"incongruent"
"5b57d2acbc04d60001e5e76e",3,0.801,"Speed","Mixed",-1.0861900464007,1,"congruent"
"5b57d2acbc04d60001e5e76e",6,0.404,"Speed","Mixed",-0.185134251650723,1,"incongruent"
"5b57d2acbc04d60001e5e76e",10,0.437,"Speed","Mixed",0.868972748294879,0,"incongruent"
"5b57d2acbc04d60001e5e76e",11,0.334,"Speed","Mixed",1.1728634360677,1,"congruent"
"5b57d2acbc04d60001e5e76e",6,0.402,"Speed","Mixed",0.0815994961324069,1,"incongruent"
"5b57d2acbc04d60001e5e76e",7,0.36,"Speed","Mixed",0.370008125576189,1,"congruent"
"5b57d2acbc04d60001e5e76e",8,0.414,"Speed","Mixed",0.639838285025126,0,"incongruent"
"5b57d2acbc04d60001e5e76e",1,0.973,"Accuracy","Mixed",-1.45687475725022,1,"congruent"
"5b57d2acbc04d60001e5e76e",2,1.027,"Accuracy","Mixed",-1.02647353570298,1,"incongruent"
"5b57d2acbc04d60001e5e76e",3,0.727,"Accuracy","Mixed",-0.461599578954962,1,"congruent"
"5b57d2acbc04d60001e5e76e",4,0.63,"Accuracy","Mixed",-0.0294289793129754,1,"incongruent"
"5b57d2acbc04d60001e5e76e",5,0.616,"Accuracy","Mixed",0.359834201531393,1,"congruent"
"5b57d2acbc04d60001e5e76e",6,0.679,"Accuracy","Mixed",0.742904559044147,1,"incongruent"
"5b57d2acbc04d60001e5e76e",7,0.67,"Accuracy","Mixed",1.15384262154917,1,"congruent"
"5b57d2acbc04d60001e5e76e",8,0.769,"Accuracy","Mixed",1.56079958334101,1,"incongruent"
"5b57d2acbc04d60001e5e76e",9,0.557,"Accuracy","Mixed",2.01154865297784,1,"congruent"
"5b57d2acbc04d60001e5e76e",10,0.629,"Accuracy","Mixed",2.36852068359307,1,"incongruent"
"5b57d2acbc04d60001e5e76e",1,0.721,"Speed","Mixed",-1.45687475725022,1,"congruent"
"5b57d2acbc04d60001e5e76e",2,0.342,"Speed","Mixed",-1.13794435567205,0,"incongruent"
"5b57d2acbc04d60001e5e76e",3,0.318,"Speed","Mixed",-0.876076397649477,1,"congruent"
"5b57d2acbc04d60001e5e76e",5,0.262,"Speed","Mixed",-0.377554119454473,1,"congruent"
"5b57d2acbc04d60001e5e76e",9,0.313,"Speed","Mixed",0.598257899798569,1,"congruent"
"5b57d2acbc04d60001e5e76e",10,0.317,"Speed","Mixed",0.847297866634227,1,"incongruent"
"5b57d2acbc04d60001e5e76e",13,0.324,"Speed","Mixed",1.58557087666747,1,"incongruent"
"5b57d2acbc04d60001e5e76e",1,0.531,"Speed","Mixed",-1.45687475725022,1,"congruent"
"5b57d2acbc04d60001e5e76e",2,0.317,"Speed","Mixed",-1.22198981517254,1,"incongruent"
"5b57d2acbc04d60001e5e76e",3,0.338,"Speed","Mixed",-0.971180470242135,1,"congruent"
"5b57d2acbc04d60001e5e76e",4,0.311,"Speed","Mixed",-0.711081890314307,0,"incongruent"
"5b57d2acbc04d60001e5e76e",5,0.31,"Speed","Mixed",-0.462926612526022,1,"incongruent"
"5b57d2acbc04d60001e5e76e",8,0.297,"Speed","Mixed",0.257652616559746,1,"incongruent"
"5b57d2acbc04d60001e5e76e",9,0.272,"Speed","Mixed",0.499615071016416,1,"congruent"
"5b57d2acbc04d60001e5e76e",11,0.295,"Speed","Mixed",0.944613661845319,0,"incongruent"
"5b57d2acbc04d60001e5e76e",12,0.302,"Speed","Mixed",1.18569142725462,1,"incongruent"
"5b57d2acbc04d60001e5e76e",13,0.277,"Speed","Mixed",1.42986560432972,0,"incongruent"
"5b57d2acbc04d60001e5e76e",1,0.919,"Accuracy","Mixed",-1.45687475725022,1,"congruent"
"5b57d2acbc04d60001e5e76e",2,0.667,"Accuracy","Mixed",-1.05036013998207,1,"incongruent"
"5b57d2acbc04d60001e5e76e",3,0.575,"Accuracy","Mixed",-0.64473021176129,1,"incongruent"
"5b57d2acbc04d60001e5e76e",5,0.587,"Accuracy","Mixed",0.0603669589954414,1,"congruent"
"5b57d2acbc04d60001e5e76e",6,0.679,"Accuracy","Mixed",0.430609325321278,1,"incongruent"
"5b57d2acbc04d60001e5e76e",7,0.641,"Accuracy","Mixed",0.841547387826299,1,"congruent"
"5b57d2acbc04d60001e5e76e",8,0.937,"Accuracy","Mixed",1.23567635843122,1,"incongruent"
"5b57d2acbc04d60001e5e76e",9,0.77,"Accuracy","Mixed",1.76073930804743,1,"incongruent"
"5b57d2acbc04d60001e5e76e",2,0.267,"Speed","Mixed",-1.33346063514161,1,"incongruent"
"5b57d2acbc04d60001e5e76e",3,0.281,"Speed","Mixed",-1.10476851639554,1,"congruent"
"5b57d2acbc04d60001e5e76e",4,0.293,"Speed","Mixed",-0.869883574317862,0,"incongruent"
"5b57d2acbc04d60001e5e76e",9,0.264,"Speed","Mixed",0.235977734899094,1,"congruent"
"5b57d2acbc04d60001e5e76e",10,0.258,"Speed","Mixed",0.4633428200741,0,"incongruent"
"5b57d2acbc04d60001e5e76e",11,0.335,"Speed","Mixed",0.688053838106986,0,"incongruent"
"5b57d2acbc04d60001e5e76e",1,0.89,"Accuracy","Mixed",-1.45687475725022,1,"incongruent"
"5b57d2acbc04d60001e5e76e",2,0.572,"Accuracy","Mixed",-1.06318813116899,1,"congruent"
"5b57d2acbc04d60001e5e76e",3,0.752,"Accuracy","Mixed",-0.699580932698451,1,"incongruent"
"5b57d2acbc04d60001e5e76e",4,0.599,"Accuracy","Mixed",-0.256351719964295,1,"congruent"
"5b57d2acbc04d60001e5e76e",5,0.576,"Accuracy","Mixed",0.119198780645783,1,"congruent"
"5b57d2acbc04d60001e5e76e",6,0.673,"Accuracy","Mixed",0.484575357211066,1,"incongruent"
"5b57d2acbc04d60001e5e76e",7,0.537,"Accuracy","Mixed",0.892859352573966,1,"congruent"
"5b57d2acbc04d60001e5e76e",8,0.766,"Accuracy","Mixed",1.24098449271546,1,"incongruent"
"5b57d2acbc04d60001e5e76e",9,0.635,"Accuracy","Mixed",1.69040652878123,1,"incongruent"
"5b57d2acbc04d60001e5e76e",10,0.649,"Accuracy","Mixed",2.08188143224404,1,"congruent"
"5b57d2acbc04d60001e5e76e",4,0.265,"Speed","Mixed",-0.896424245739069,0,"incongruent"
"5b57d2acbc04d60001e5e76e",6,0.258,"Speed","Mixed",-0.450540965862792,1,"congruent"
"5b57d2acbc04d60001e5e76e",7,0.293,"Speed","Mixed",-0.225829947829907,1,"incongruent"
"5b57d2acbc04d60001e5e76e",10,0.254,"Speed","Mixed",0.465996887216221,1,"incongruent"
"5b57d2acbc04d60001e5e76e",1,0.978,"Accuracy","Mixed",-1.45687475725022,1,"congruent"
"5b57d2acbc04d60001e5e76e",2,0.746,"Accuracy","Mixed",-1.02426181308455,1,"incongruent"
"5b57d2acbc04d60001e5e76e",3,0.556,"Accuracy","Mixed",-0.583686667492514,1,"congruent"
"5b57d2acbc04d60001e5e76e",4,0.733,"Accuracy","Mixed",-0.227156981400967,1,"incongruent"
"5b57d2acbc04d60001e5e76e",5,0.672,"Accuracy","Mixed",0.20766768538314,1,"incongruent"
"5b57d2acbc04d60001e5e76e",6,0.597,"Accuracy","Mixed",0.615509336222353,1,"incongruent"
"5b57d2acbc04d60001e5e76e",7,0.769,"Accuracy","Mixed",0.990175147785058,1,"incongruent"
"5b57d2acbc04d60001e5e76e",2,2.112,"Accuracy","Mixed",-1.13794435567205,1,"incongruent"
"5b57d2acbc04d60001e5e76e",3,1.163,"Accuracy","Mixed",-0.0931265907238721,1,"incongruent"
"5b57d2acbc04d60001e5e76e",4,1.148,"Accuracy","Mixed",0.531906221245551,1,"congruent"
"5b57d2acbc04d60001e5e76e",5,0.821,"Accuracy","Mixed",1.15030386535967,1,"incongruent"
"5b57d2acbc04d60001e5e76e",1,0.808,"Accuracy","Mixed",-1.45687475725022,1,"incongruent"
"5b57d2acbc04d60001e5e76e",2,0.648,"Accuracy","Mixed",-1.0994603821113,1,"congruent"
"5b57d2acbc04d60001e5e76e",3,0.562,"Accuracy","Mixed",-0.702234999840571,1,"congruent"
"5b57d2acbc04d60001e5e76e",4,1.426,"Accuracy","Mixed",-0.343051246606904,1,"incongruent"
"5b57d2acbc04d60001e5e76e",5,0.608,"Accuracy","Mixed",0.398318175092143,1,"incongruent"
"5b57d2acbc04d60001e5e76e",6,0.782,"Accuracy","Mixed",0.777849776415402,1,"incongruent"
"5b57d2acbc04d60001e5e76e",7,1.055,"Accuracy","Mixed",1.23434932486016,1,"congruent"
"5b57d2acbc04d60001e5e76e",8,1.001,"Accuracy","Mixed",1.81160892827141,1,"congruent"
"5b57d2acbc04d60001e5e76e",9,0.663,"Accuracy","Mixed",2.36498192740358,1,"congruent"
"5b57d2acbc04d60001e5e76e",3,0.359,"Speed","Mixed",-1.1463489016221,1,"congruent"
"5b57d2acbc04d60001e5e76e",8,0.384,"Speed","Mixed",0.020555951863631,0,"incongruent"
"5b57d2acbc04d60001e5e76e",2,0.251,"Speed","Mixed",-1.32859484538106,1,"incongruent"
"5b57d2acbc04d60001e5e76e",4,0.254,"Speed","Mixed",-0.857940272178319,1,"incongruent"
"5b57d2acbc04d60001e5e76e",9,0.483,"Speed","Mixed",0.2089947189542,1,"congruent"
"5b57d2acbc04d60001e5e76e",12,0.299,"Speed","Mixed",0.965403854458598,1,"incongruent"
"5b57d2acbc04d60001e5e76e",1,0.775,"Accuracy","Mixed",-1.45687475725022,1,"incongruent"
"5b57d2acbc04d60001e5e76e",2,0.752,"Accuracy","Mixed",-1.11405775139297,1,"congruent"
"5b57d2acbc04d60001e5e76e",3,0.739,"Accuracy","Mixed",-0.67082853865881,1,"incongruent"
"5b57d2acbc04d60001e5e76e",4,0.903,"Accuracy","Mixed",-0.233349804732582,1,"incongruent"
"5b57d2acbc04d60001e5e76e",5,0.684,"Accuracy","Mixed",0.276673431078278,1,"congruent"
"5b57d2acbc04d60001e5e76e",6,0.727,"Accuracy","Mixed",0.689823216201733,1,"incongruent"
"5b57d2acbc04d60001e5e76e",7,0.722,"Accuracy","Mixed",1.12199381584372,1,"congruent"
"5b57d2acbc04d60001e5e76e",8,0.776,"Accuracy","Mixed",1.55195269286727,1,"incongruent"
"5b57d2acbc04d60001e5e76e",9,0.604,"Accuracy","Mixed",2.00579817416991,1,"congruent"
"5b57d2acbc04d60001e5e76e",10,0.593,"Accuracy","Mixed",2.38356039739842,1,"incongruent"
"5b57d2acbc04d60001e5e76e",6,0.371,"Speed","Mixed",-0.301913205904033,0,"incongruent"
"5b57d2acbc04d60001e5e76e",11,0.436,"Speed","Mixed",1.07289357371449,1,"congruent"
"5b57d2acbc04d60001e5e76e",12,0.346,"Speed","Mixed",1.37634191696362,1,"incongruent"
"5b57d2acbc04d60001e5e76e",13,0.284,"Speed","Mixed",1.63997925308094,0,"incongruent"
"5b57d2acbc04d60001e5e76e",1,0.722,"Accuracy","Mixed",-1.45687475725022,1,"incongruent"
"5b57d2acbc04d60001e5e76e",2,0.556,"Accuracy","Mixed",-1.13750201114837,1,"congruent"
"5b57d2acbc04d60001e5e76e",3,0.49,"Accuracy","Mixed",-0.780972325056819,1,"congruent"
"5b57d2acbc04d60001e5e76e",4,0.727,"Accuracy","Mixed",-0.4536373775286,1,"incongruent"
"5b57d2acbc04d60001e5e76e",5,0.596,"Accuracy","Mixed",-0.0214667778866134,1,"incongruent"
"5b57d2acbc04d60001e5e76e",6,0.608,"Accuracy","Mixed",0.352756689152404,1,"congruent"
"5b57d2acbc04d60001e5e76e",7,0.564,"Accuracy","Mixed",0.732288290475664,1,"congruent"
"5b57d2acbc04d60001e5e76e",8,0.64,"Accuracy","Mixed",1.0923567327567,1,"incongruent"
"5b57d2acbc04d60001e5e76e",9,0.462,"Accuracy","Mixed",1.48604335883794,1,"congruent"
"5b57d2acbc04d60001e5e76e",9,0.337,"Speed","Mixed",0.666378956446333,0,"incongruent"
"5b57d2acbc04d60001e5e76e",1,0.843,"Accuracy","Mixed",-1.45687475725022,1,"congruent"
"5b57d2acbc04d60001e5e76e",2,0.607,"Accuracy","Mixed",-1.08397832378226,1,"incongruent"
"5b57d2acbc04d60001e5e76e",3,0.574,"Accuracy","Mixed",-0.704889066982692,1,"incongruent"
"5b57d2acbc04d60001e5e76e",4,0.556,"Accuracy","Mixed",-0.340397179464783,1,"congruent"
"5b57d2acbc04d60001e5e76e",5,0.517,"Accuracy","Mixed",0.0161325066267631,1,"congruent"
"5b57d2acbc04d60001e5e76e",6,0.534,"Accuracy","Mixed",0.355410756294525,0,"incongruent"
"5b57d2acbc04d60001e5e76e",7,0.726,"Accuracy","Mixed",0.702208862864963,1,"congruent"
"5b57d2acbc04d60001e5e76e",1,0.294,"Speed","Mixed",-1.45687475725022,1,"incongruent"
"5b57d2acbc04d60001e5e76e",3,0.64,"Speed","Mixed",-1.10874961710872,0,"incongruent"
"5b57d2acbc04d60001e5e76e",10,0.324,"Speed","Mixed",0.953902896842742,1,"incongruent"
"5b57d2acbc04d60001e5e76e",2,0.494,"Speed","Mixed",0.0904463866061426,1,"congruent"
"5b57d2acbc04d60001e5e76e",3,0.481,"Speed","Mixed",0.419550712229109,1,"congruent"
"5b57d2acbc04d60001e5e76e",4,1.045,"Speed","Mixed",0.742904559044147,1,"incongruent"
"5b57d2acbc04d60001e5e76e",5,0.735,"Speed","Mixed",1.31574071721853,1,"congruent"
"5b57d2acbc04d60001e5e76e",1,0.714,"Accuracy","Mixed",-1.45687475725022,1,"incongruent"
"5b57d2acbc04d60001e5e76e",2,0.703,"Accuracy","Mixed",-1.14104076733786,1,"congruent"
"5b57d2acbc04d60001e5e76e",3,0.696,"Accuracy","Mixed",-0.719486436264356,1,"incongruent"
"5b57d2acbc04d60001e5e76e",4,0.909,"Accuracy","Mixed",-0.30102851685666,1,"incongruent"
"5b57d2acbc04d60001e5e76e",5,0.953,"Accuracy","Mixed",0.211648786096321,1,"congruent"
"5b57d2acbc04d60001e5e76e",6,0.468,"Accuracy","Mixed",0.74378924809152,1,"congruent"
"5b57d2acbc04d60001e5e76e",7,0.955,"Accuracy","Mixed",1.06139261609863,1,"incongruent"
"5b57d2acbc04d60001e5e76e",8,0.659,"Accuracy","Mixed",1.5944177671412,1,"incongruent"
"5b57d2acbc04d60001e5e76e",1,0.537,"Speed","Mixed",-1.45687475725022,1,"incongruent"
"5b57d2acbc04d60001e5e76e",3,0.269,"Speed","Mixed",-0.984450805952738,1,"incongruent"
"5b57d2acbc04d60001e5e76e",6,0.289,"Speed","Mixed",-0.283334735909189,1,"incongruent"
"5b57d2acbc04d60001e5e76e",7,0.3,"Speed","Mixed",-0.0449110376420128,1,"incongruent"
"5b57d2acbc04d60001e5e76e",8,0.264,"Speed","Mixed",0.198378450385717,1,"congruent"
"5b57d2acbc04d60001e5e76e",9,0.335,"Speed","Mixed",0.425743535560724,1,"congruent"
"5b57d2acbc04d60001e5e76e",10,0.42,"Speed","Mixed",0.684515081917491,0,"incongruent"
"5b57d2acbc04d60001e5e76e",2,0.29,"Speed","Mixed",-1.28568742658344,1,"congruent"
"5b57d2acbc04d60001e5e76e",11,0.253,"Speed","Mixed",0.676995225014816,1,"incongruent"
"5b57d2acbc04d60001e5e76e",1,0.798,"Accuracy","Mixed",-1.45687475725022,1,"congruent"
"5b57d2acbc04d60001e5e76e",2,0.615,"Accuracy","Mixed",-1.10388382734817,1,"incongruent"
"5b57d2acbc04d60001e5e76e",3,0.801,"Accuracy","Mixed",-0.721255814359103,1,"incongruent"
"5b57d2acbc04d60001e5e76e",4,0.645,"Accuracy","Mixed",-0.256351719964295,1,"incongruent"
"5b57d2acbc04d60001e5e76e",5,0.806,"Accuracy","Mixed",0.139546628735375,1,"congruent"
"5b57d2acbc04d60001e5e76e",6,0.721,"Accuracy","Mixed",0.606662445748617,1,"incongruent"
"5b57d2acbc04d60001e5e76e",1,0.424,"Speed","Mixed",-1.45687475725022,0,"incongruent"
"5b57d2acbc04d60001e5e76e",4,0.359,"Speed","Mixed",-0.84820869265721,1,"incongruent"
"5b57d2acbc04d60001e5e76e",8,0.55,"Speed","Mixed",0.0497506904269586,1,"incongruent"
"5b57d2acbc04d60001e5e76e",9,0.261,"Speed","Mixed",0.403626309376384,0,"incongruent"
"5b57d2acbc04d60001e5e76e",1,0.699,"Accuracy","Mixed",-1.45687475725022,1,"incongruent"
"5b57d2acbc04d60001e5e76e",2,0.586,"Accuracy","Mixed",-1.14767593519316,1,"congruent"
"5b57d2acbc04d60001e5e76e",3,0.55,"Accuracy","Mixed",-0.777875913391011,1,"congruent"
"5b57d2acbc04d60001e5e76e",4,0.657,"Accuracy","Mixed",-0.424000294441585,1,"incongruent"
"5b57d2acbc04d60001e5e76e",5,0.646,"Accuracy","Mixed",-0.0227938114576737,1,"incongruent"
"5b57d2acbc04d60001e5e76e",6,0.658,"Accuracy","Mixed",0.373546881765683,1,"incongruent"
"5b57d2acbc04d60001e5e76e",7,0.491,"Accuracy","Mixed",0.775195709273282,1,"incongruent"
"5b57d2acbc04d60001e5e76e",8,0.474,"Accuracy","Mixed",1.10297300132519,1,"congruent"
"5b57d2acbc04d60001e5e76e",9,0.594,"Accuracy","Mixed",1.42323043647442,1,"incongruent"
"5b57d2acbc04d60001e5e76e",1,0.66,"Accuracy","Mixed",-1.45687475725022,1,"congruent"
"5b57d2acbc04d60001e5e76e",2,0.748,"Accuracy","Mixed",-1.16492737161695,1,"incongruent"
"5b57d2acbc04d60001e5e76e",3,0.824,"Accuracy","Mixed",-0.723467536977537,1,"congruent"
"5b57d2acbc04d60001e5e76e",4,0.706,"Accuracy","Mixed",-0.248389518537933,1,"incongruent"
"5b57d2acbc04d60001e5e76e",5,0.92,"Accuracy","Mixed",0.174491846106631,1,"incongruent"
"5b57d2acbc04d60001e5e76e",6,0.757,"Accuracy","Mixed",0.692034938820167,1,"incongruent"
"5b57d2acbc04d60001e5e76e",7,0.594,"Accuracy","Mixed",1.13747587417276,1,"congruent"
"5b57d2acbc04d60001e5e76e",8,0.649,"Accuracy","Mixed",1.5108146521644,1,"congruent"
"5b57d2acbc04d60001e5e76e",1,1.185,"Accuracy","Mixed",-1.45687475725022,1,"incongruent"
"5b57d2acbc04d60001e5e76e",2,0.655,"Accuracy","Mixed",-0.932696496681385,1,"congruent"
"5b57d2acbc04d60001e5e76e",3,0.687,"Accuracy","Mixed",-0.532374702744847,1,"incongruent"
"5b57d2acbc04d60001e5e76e",4,0.53,"Accuracy","Mixed",-0.117897884050332,1,"congruent"
"5b57d2acbc04d60001e5e76e",5,0.487,"Accuracy","Mixed",0.227130844425358,1,"congruent"
"5b57d2acbc04d60001e5e76e",6,0.379,"Accuracy","Mixed",0.553138758382517,1,"incongruent"
"5b57d2acbc04d60001e5e76e",7,0.503,"Accuracy","Mixed",0.831373463781503,1,"congruent"
"5b57d2acbc04d60001e5e76e",8,0.417,"Accuracy","Mixed",1.16445889011765,1,"incongruent"
"5b57d2acbc04d60001e5e76e",9,0.413,"Accuracy","Mixed",1.45950268741673,1,"congruent"
"5b57d2acbc04d60001e5e76e",10,0.409,"Accuracy","Mixed",1.75277710662107,0,"incongruent"
"5b57d2acbc04d60001e5e76e",1,0.647,"Accuracy","Mixed",-1.45687475725022,1,"incongruent"
"5b57d2acbc04d60001e5e76e",3,1.675,"Accuracy","Mixed",-0.846439314562462,1,"congruent"
"5b57d2acbc04d60001e5e76e",4,0.709,"Accuracy","Mixed",0.00507389353459359,1,"incongruent"
"5b57d2acbc04d60001e5e76e",5,0.924,"Accuracy","Mixed",0.429282291750218,1,"congruent"
"5b57d2acbc04d60001e5e76e",6,0.709,"Accuracy","Mixed",0.9485947625585,1,"incongruent"
"5b57d2acbc04d60001e5e76e",6,0.323,"Speed","Mixed",-0.339954834941097,0,"incongruent"
"5b57d2acbc04d60001e5e76e",10,0.264,"Speed","Mixed",0.558889237190445,0,"incongruent"
"5b57d2acbc04d60001e5e76e",13,0.253,"Speed","Mixed",1.23390698033647,1,"congruent"
"5b57d2acbc04d60001e5e76e",1,0.791,"Accuracy","Mixed",-1.45687475725022,1,"congruent"
"5b57d2acbc04d60001e5e76e",2,0.43,"Accuracy","Mixed",-1.10698023901398,1,"incongruent"
"5b57d2acbc04d60001e5e76e",3,0.531,"Accuracy","Mixed",-0.806185962906965,1,"congruent"
"5b57d2acbc04d60001e5e76e",4,0.695,"Accuracy","Mixed",-0.460714889907588,1,"incongruent"
"5b57d2acbc04d60001e5e76e",5,0.666,"Accuracy","Mixed",-0.0426993150235789,1,"congruent"
"5b57d2acbc04d60001e5e76e",6,0.702,"Accuracy","Mixed",0.362488268673514,1,"incongruent"
"5b57d2acbc04d60001e5e76e",7,0.711,"Accuracy","Mixed",0.78360025522333,1,"incongruent"
"5b57d2acbc04d60001e5e76e",8,0.616,"Accuracy","Mixed",1.20869334248633,1,"congruent"
"5b57d2acbc04d60001e5e76e",1,0.398,"Speed","Mixed",-1.45687475725022,1,"incongruent"
"5b57d2acbc04d60001e5e76e",9,0.306,"Speed","Mixed",0.494749281255862,0,"incongruent"
"5b57d2acbc04d60001e5e76e",2,0.261,"Speed","Fixed",-1.30426589657828,0,"incongruent"
"5b57d2acbc04d60001e5e76e",4,0.433,"Speed","Fixed",-0.879615153838971,0,"incongruent"
"5b57d2acbc04d60001e5e76e",5,0.257,"Speed","Fixed",-0.577493844160899,1,"incongruent"
"5b57d2acbc04d60001e5e76e",13,0.265,"Speed","Fixed",1.34847421197135,1,"congruent"
"5b57d2acbc04d60001e5e76e",3,0.384,"Speed","Fixed",-0.856613238607258,0,"incongruent"
"5b57d2acbc04d60001e5e76e",4,0.313,"Speed","Fixed",-0.576166810589838,1,"congruent"
"5b57d2acbc04d60001e5e76e",8,0.319,"Speed","Fixed",0.467766265310968,1,"incongruent"
"5b57d2acbc04d60001e5e76e",9,0.356,"Speed","Fixed",0.719460299288747,1,"congruent"
"5b57d2acbc04d60001e5e76e",1,0.595,"Speed","Fixed",-1.45687475725022,1,"incongruent"
"5b57d2acbc04d60001e5e76e",3,0.276,"Speed","Fixed",-0.953044344770977,1,"incongruent"
"5b57d2acbc04d60001e5e76e",4,0.308,"Speed","Fixed",-0.720371125311729,0,"incongruent"
"5b57d2acbc04d60001e5e76e",7,0.363,"Speed","Fixed",0.0236523635294384,1,"congruent"
"5b57d2acbc04d60001e5e76e",8,0.34,"Speed","Fixed",0.294809556549436,0,"incongruent"
"5b57d2acbc04d60001e5e76e",9,0.296,"Speed","Fixed",0.555792825524638,0,"incongruent"
"5b57d2acbc04d60001e5e76e",10,0.323,"Speed","Fixed",0.797312935457621,1,"incongruent"
"5b57d2acbc04d60001e5e76e",1,0.636,"Speed","Fixed",-1.45687475725022,0,"incongruent"
"5b57d2acbc04d60001e5e76e",4,0.302,"Speed","Fixed",-0.67082853865881,0,"incongruent"
"5b57d2acbc04d60001e5e76e",6,0.344,"Speed","Fixed",-0.182480184508602,1,"incongruent"
"5b57d2acbc04d60001e5e76e",11,0.257,"Speed","Fixed",0.991502181356118,0,"incongruent"
"5b57d2acbc04d60001e5e76e",5,0.365,"Speed","Fixed",-0.54431800488439,1,"congruent"
"5b57d2acbc04d60001e5e76e",2,0.293,"Speed","Fixed",-1.16625440518801,0,"incongruent"
"5b57d2acbc04d60001e5e76e",6,0.253,"Speed","Fixed",-0.270949089245959,1,"congruent"
"5b57d2acbc04d60001e5e76e",1,0.809,"Speed","Fixed",-1.45687475725022,1,"incongruent"
"5b57d2acbc04d60001e5e76e",1,0.565,"Speed","Fixed",-1.45687475725022,1,"incongruent"
"5b57d2acbc04d60001e5e76e",4,0.527,"Speed","Fixed",-0.788934526483181,1,"incongruent"
"5b57d2acbc04d60001e5e76e",5,0.268,"Speed","Fixed",-0.445232831578551,0,"incongruent"
"5b57d2acbc04d60001e5e76e",9,0.469,"Speed","Fixed",0.41247319985012,1,"congruent"
"5b57d2acbc04d60001e5e76e",10,0.314,"Speed","Fixed",0.730518912380917,1,"congruent"
"5b57d2acbc04d60001e5e76e",12,0.48,"Speed","Fixed",1.21532851034163,0,"incongruent"
"5b57d2acbc04d60001e5e76e",12,0.279,"Speed","Fixed",0.953902896842742,1,"congruent"
"5b57d2acbc04d60001e5e76e",1,0.568,"Speed","Fixed",-1.45687475725022,0,"incongruent"
"5b57d2acbc04d60001e5e76e",6,0.401,"Speed","Fixed",-0.166555781655878,1,"congruent"
"5b57d2acbc04d60001e5e76e",7,0.4,"Speed","Fixed",0.121410503264217,1,"incongruent"
"5b57d2acbc04d60001e5e76e",8,0.309,"Speed","Fixed",0.408934443660626,0,"incongruent"
"5b57d2acbc04d60001e5e76e",10,0.253,"Speed","Fixed",0.891089974479219,1,"incongruent"
"5b57d2acbc04d60001e5e76e",11,0.285,"Speed","Fixed",1.11358926989367,1,"incongruent"
"5b57d2acbc04d60001e5e76e",2,0.416,"Speed","Fixed",-1.29895776229404,1,"incongruent"
"5b57d2acbc04d60001e5e76e",3,0.28,"Speed","Fixed",-1.00435630951864,1,"congruent"
"5b57d2acbc04d60001e5e76e",8,0.298,"Speed","Fixed",0.338601664394427,1,"congruent"
"5b57d2acbc04d60001e5e76e",4,0.362,"Speed","Fixed",-0.594745280584683,1,"congruent"
"5b57d2acbc04d60001e5e76e",5,0.261,"Speed","Fixed",-0.324030432088372,0,"incongruent"
"5b57d2acbc04d60001e5e76e",7,0.346,"Speed","Fixed",0.320465538923269,1,"incongruent"
"5b57d2acbc04d60001e5e76e",9,0.336,"Speed","Fixed",0.815891405452466,0,"incongruent"
"5b57d2acbc04d60001e5e76e",14,0.279,"Speed","Fixed",1.99429721655405,1,"incongruent"
"5b57d2acbc04d60001e5e76e",6,0.332,"Speed","Fixed",0.573044261948422,1,"congruent"
"5b57d2acbc04d60001e5e76e",7,0.29,"Speed","Fixed",0.830488774734129,1,"incongruent"
"5b57d2acbc04d60001e5e76e",9,0.313,"Speed","Fixed",1.34449311125817,1,"incongruent"
"5b57d2acbc04d60001e5e76e",1,1.418,"Speed","Fixed",-1.45687475725022,0,"incongruent"
"5b57d2acbc04d60001e5e76e",2,0.383,"Speed","Fixed",-0.829630222662365,1,"congruent"
"5b57d2acbc04d60001e5e76e",3,0.456,"Speed","Fixed",-0.549626139168631,1,"incongruent"
"5b57d2acbc04d60001e5e76e",8,0.346,"Speed","Fixed",0.777407431891716,1,"congruent"
"5b57d2acbc04d60001e5e76e",9,0.33,"Speed","Fixed",1.04104476800904,0,"incongruent"
"5b57d2acbc04d60001e5e76e",10,0.426,"Speed","Fixed",1.29760459174737,0,"incongruent"
"5b57d2acbc04d60001e5e76e",1,0.564,"Speed","Fixed",-1.45687475725022,1,"incongruent"
"5b57d2acbc04d60001e5e76e",3,0.254,"Speed","Fixed",-0.936235252870879,1,"incongruent"
"5b57d2acbc04d60001e5e76e",4,0.442,"Speed","Fixed",-0.713293612932741,1,"congruent"
"5b57d2acbc04d60001e5e76e",13,0.299,"Speed","Fixed",1.53470125644349,1,"congruent"
"5b57d2acbc04d60001e5e76e",14,0.284,"Speed","Fixed",1.77754839994753,1,"incongruent"
"5b57d2acbc04d60001e5e76e",1,0.898,"Speed","Fixed",-1.45687475725022,1,"congruent"
"5b57d2acbc04d60001e5e76e",2,0.392,"Speed","Fixed",-1.05964937497949,0,"incongruent"
"5b57d2acbc04d60001e5e76e",6,0.304,"Speed","Fixed",0.0891193530350822,1,"incongruent"
"5b57d2acbc04d60001e5e76e",10,0.402,"Speed","Fixed",1.0556421372907,1,"congruent"
"5b57d2acbc04d60001e5e76e",7,0.259,"Speed","Fixed",0.0762913618481655,1,"congruent"
"5b57d2acbc04d60001e5e76e",11,0.276,"Speed","Fixed",1.03352491110636,1,"congruent"
"5b57d2acbc04d60001e5e76e",13,0.397,"Speed","Fixed",1.44579000718244,0,"incongruent"
"5b57d2acbc04d60001e5e76e",8,0.279,"Speed","Fixed",0.312503337496907,1,"congruent"
"5b57d2acbc04d60001e5e76e",3,0.273,"Speed","Fixed",-1.00125989785284,0,"incongruent"
"5b57d2acbc04d60001e5e76e",8,0.288,"Speed","Fixed",0.101947344221999,1,"congruent"
"5b57d2acbc04d60001e5e76e",1,0.723,"Speed","Fixed",-1.45687475725022,0,"incongruent"
"5b57d2acbc04d60001e5e76e",6,0.252,"Speed","Fixed",0.0108243723425218,1,"incongruent"
"5b57d2acbc04d60001e5e76e",8,0.645,"Speed","Fixed",0.416454300563301,1,"congruent"
"5b57d2acbc04d60001e5e76e",2,0.266,"Speed","Fixed",-1.14502186805104,0,"incongruent"
"5b57d2acbc04d60001e5e76e",7,0.279,"Speed","Fixed",0.0435578670953436,1,"congruent"
"5b57d2acbc04d60001e5e76e",9,0.561,"Speed","Fixed",0.457592341266172,0,"incongruent"
"5b57d2acbc04d60001e5e76e",3,0.349,"Speed","Fixed",-1.01010678832657,1,"congruent"
"5b57d2acbc04d60001e5e76e",4,0.354,"Speed","Fixed",-0.745142418638189,0,"incongruent"
"5b57d2acbc04d60001e5e76e",6,0.254,"Speed","Fixed",-0.259890476153789,0,"incongruent"
"5b57d2acbc04d60001e5e76e",7,0.262,"Speed","Fixed",-0.0369488362156507,0,"incongruent"
"5b57d2acbc04d60001e5e76e",9,0.276,"Speed","Fixed",0.419108367705422,1,"incongruent"
"5b57d2acbc04d60001e5e76e",6,0.264,"Speed","Fixed",-0.16213233641901,1,"incongruent"
"5b57d2acbc04d60001e5e76e",7,0.306,"Speed","Fixed",0.065232748755996,1,"incongruent"
"5b57d2acbc04d60001e5e76e",1,0.367,"Speed","Fixed",-1.45687475725022,1,"congruent"
"5b57d2acbc04d60001e5e76e",2,0.305,"Speed","Fixed",-1.29453431705717,0,"incongruent"
"5b57d2acbc04d60001e5e76e",3,0.349,"Speed","Fixed",-1.04903310641101,1,"congruent"
"5b57d2acbc04d60001e5e76e",4,0.265,"Speed","Fixed",-0.784068736722626,1,"incongruent"
"5b57d2acbc04d60001e5e76e",7,0.308,"Speed","Fixed",-0.0634895076368577,0,"incongruent"
"5b57d2acbc04d60001e5e76e",9,0.293,"Speed","Fixed",0.443437316508195,1,"incongruent"
"5b57d2acbc04d60001e5e76e",10,0.351,"Speed","Fixed",0.683630392870118,1,"congruent"
"5b57d2acbc04d60001e5e76e",7,0.286,"Speed","Fixed",0.140431317782749,1,"congruent"
"5b57d2acbc04d60001e5e76e",8,0.305,"Speed","Fixed",0.377527982478864,1,"incongruent"
"5b57d2acbc04d60001e5e76e",1,0.443,"Speed","Fixed",-1.45687475725022,1,"congruent"
"5b57d2acbc04d60001e5e76e",2,0.263,"Speed","Fixed",-1.26091613325698,0,"incongruent"
"5b57d2acbc04d60001e5e76e",9,0.294,"Speed","Fixed",0.281981565362519,1,"incongruent"
"5b57d2acbc04d60001e5e76e",10,0.323,"Speed","Fixed",0.522616986248129,1,"incongruent"
"5b57d2acbc04d60001e5e76e",11,0.354,"Speed","Fixed",0.776080398320655,1,"congruent"
"5b57d2acbc04d60001e5e76e",12,0.268,"Speed","Fixed",1.04325649062747,0,"incongruent"
"5b57d2acbc04d60001e5e76e",8,0.37,"Speed","Fixed",-0.0639318521605445,0,"incongruent"
"5b57d2acbc04d60001e5e76e",1,0.89,"Accuracy","Fixed",-1.45687475725022,1,"incongruent"
"5b57d2acbc04d60001e5e76e",2,0.657,"Accuracy","Fixed",-1.06318813116899,1,"congruent"
"5b57d2acbc04d60001e5e76e",3,0.704,"Accuracy","Fixed",-0.661981648185074,1,"incongruent"
"5b57d2acbc04d60001e5e76e",4,0.712,"Accuracy","Fixed",-0.239984972587884,1,"incongruent"
"5b57d2acbc04d60001e5e76e",5,0.64,"Accuracy","Fixed",0.185550459198801,1,"congruent"
"5b57d2acbc04d60001e5e76e",6,1.025,"Accuracy","Fixed",0.579237085280037,1,"congruent"
"5b57d2acbc04d60001e5e76e",7,0.656,"Accuracy","Fixed",1.14322635298068,1,"incongruent"
"5b57d2acbc04d60001e5e76e",8,0.768,"Accuracy","Fixed",1.54399049144091,1,"incongruent"
"5b57d2acbc04d60001e5e76e",9,0.736,"Accuracy","Fixed",1.99429721655405,1,"incongruent"
"5b57d2acbc04d60001e5e76e",1,0.942,"Accuracy","Fixed",-1.45687475725022,1,"incongruent"
"5b57d2acbc04d60001e5e76e",2,0.557,"Accuracy","Fixed",-1.04018621593727,1,"congruent"
"5b57d2acbc04d60001e5e76e",3,0.571,"Accuracy","Fixed",-0.68321418532204,1,"congruent"
"5b57d2acbc04d60001e5e76e",4,0.971,"Accuracy","Fixed",-0.320049331375191,1,"incongruent"
"5b57d2acbc04d60001e5e76e",5,0.632,"Accuracy","Fixed",0.22005333204637,1,"incongruent"
"5b57d2acbc04d60001e5e76e",6,0.485,"Accuracy","Fixed",0.610201201938112,1,"congruent"
"5b57d2acbc04d60001e5e76e",8,1.17,"Accuracy","Fixed",1.29539286912894,1,"incongruent"
"5b57d2acbc04d60001e5e76e",9,0.682,"Accuracy","Fixed",1.92352209276417,1,"congruent"
"5b57d2acbc04d60001e5e76e",1,1.285,"Accuracy","Fixed",-1.45687475725022,1,"congruent"
"5b57d2acbc04d60001e5e76e",2,0.76,"Accuracy","Fixed",-0.888462044312707,1,"incongruent"
"5b57d2acbc04d60001e5e76e",3,0.629,"Accuracy","Fixed",-0.441694075389057,1,"incongruent"
"5b57d2acbc04d60001e5e76e",4,0.529,"Accuracy","Fixed",-0.0528732390683749,1,"incongruent"
"5b57d2acbc04d60001e5e76e",5,0.58,"Accuracy","Fixed",0.291713144883629,1,"congruent"
"5b57d2acbc04d60001e5e76e",6,0.845,"Accuracy","Fixed",0.658859099543658,1,"incongruent"
"5b57d2acbc04d60001e5e76e",1,0.741,"Accuracy","Fixed",-1.45687475725022,1,"incongruent"
"5b57d2acbc04d60001e5e76e",2,0.632,"Accuracy","Fixed",-1.12909746519832,1,"congruent"
"5b57d2acbc04d60001e5e76e",3,0.631,"Accuracy","Fixed",-0.738949595306574,1,"incongruent"
"5b57d2acbc04d60001e5e76e",4,0.697,"Accuracy","Fixed",-0.349244069938519,1,"incongruent"
"5b57d2acbc04d60001e5e76e",5,0.707,"Accuracy","Fixed",0.0696561939928638,1,"congruent"
"5b57d2acbc04d60001e5e76e",6,0.462,"Accuracy","Fixed",0.492979903161115,1,"congruent"
"5b57d2acbc04d60001e5e76e",7,1.133,"Accuracy","Fixed",0.807929204026103,1,"incongruent"
"5b57d2acbc04d60001e5e76e",8,0.7,"Accuracy","Fixed",1.41969168028492,1,"congruent"
"5b57d2acbc04d60001e5e76e",9,0.631,"Accuracy","Fixed",1.83991897778737,1,"incongruent"
"5b57d2acbc04d60001e5e76e",10,0.541,"Accuracy","Fixed",2.22962450315542,1,"congruent"
"5b57d2acbc04d60001e5e76e",1,0.712,"Accuracy","Fixed",-1.45687475725022,1,"incongruent"
"5b57d2acbc04d60001e5e76e",2,0.595,"Accuracy","Fixed",-1.14192545638523,1,"congruent"
"5b57d2acbc04d60001e5e76e",3,0.558,"Accuracy","Fixed",-0.768144333869902,1,"congruent"
"5b57d2acbc04d60001e5e76e",4,0.66,"Accuracy","Fixed",-0.410729958730982,1,"incongruent"
"5b57d2acbc04d60001e5e76e",5,0.61,"Accuracy","Fixed",-0.00819644217600988,1,"congruent"
"5b57d2acbc04d60001e5e76e",6,0.65,"Accuracy","Fixed",0.372219848194623,1,"incongruent"
"5b57d2acbc04d60001e5e76e",7,0.633,"Accuracy","Fixed",0.770329919512727,1,"incongruent"
"5b57d2acbc04d60001e5e76e",8,0.518,"Accuracy","Fixed",1.16092013392816,1,"congruent"
"5b57d2acbc04d60001e5e76e",1,0.626,"Accuracy","Fixed",-1.45687475725022,1,"congruent"
"5b57d2acbc04d60001e5e76e",2,0.777,"Accuracy","Fixed",-1.1799670854223,1,"incongruent"
"5b57d2acbc04d60001e5e76e",3,0.55,"Accuracy","Fixed",-0.725679259595971,0,"incongruent"
"5b57d2acbc04d60001e5e76e",4,0.849,"Accuracy","Fixed",-0.371803640646545,1,"congruent"
"5b57d2acbc04d60001e5e76e",5,0.478,"Accuracy","Fixed",0.114332990885229,1,"congruent"
"5b57d2acbc04d60001e5e76e",6,0.763,"Accuracy","Fixed",0.436359804129206,1,"incongruent"
"5b57d2acbc04d60001e5e76e",7,0.68,"Accuracy","Fixed",0.884454806623917,1,"congruent"
"5b57d2acbc04d60001e5e76e",1,0.801,"Accuracy","Fixed",-1.45687475725022,1,"incongruent"
"5b57d2acbc04d60001e5e76e",2,0.55,"Accuracy","Fixed",-1.10255679377711,1,"congruent"
"5b57d2acbc04d60001e5e76e",3,0.502,"Accuracy","Fixed",-0.748681174827683,1,"incongruent"
"5b57d2acbc04d60001e5e76e",5,0.956,"Accuracy","Fixed",-0.024120845028734,1,"incongruent"
"5b57d2acbc04d60001e5e76e",6,0.908,"Accuracy","Fixed",0.509346650537525,1,"incongruent"
"5b57d2acbc04d60001e5e76e",7,0.696,"Accuracy","Fixed",1.02158160896682,1,"congruent"
"5b57d2acbc04d60001e5e76e",8,0.542,"Accuracy","Fixed",1.44003952837452,1,"congruent"
"5b57d2acbc04d60001e5e76e",1,0.855,"Accuracy","Fixed",-1.45687475725022,1,"incongruent"
"5b57d2acbc04d60001e5e76e",2,0.563,"Accuracy","Fixed",-1.07867018949802,1,"congruent"
"5b57d2acbc04d60001e5e76e",3,0.754,"Accuracy","Fixed",-0.719044091740669,1,"incongruent"
"5b57d2acbc04d60001e5e76e",4,0.698,"Accuracy","Fixed",-0.27493018995914,1,"incongruent"
"5b57d2acbc04d60001e5e76e",5,0.658,"Accuracy","Fixed",0.14441241849593,1,"congruent"
"5b57d2acbc04d60001e5e76e",6,0.815,"Accuracy","Fixed",0.546061246003528,1,"incongruent"
"5b57d2acbc04d60001e5e76e",7,0.594,"Accuracy","Fixed",1.01715816372995,1,"congruent"
"5b57d2acbc04d60001e5e76e",1,0.982,"Accuracy","Fixed",-1.45687475725022,1,"congruent"
"5b57d2acbc04d60001e5e76e",2,0.761,"Accuracy","Fixed",-1.0224924349898,1,"incongruent"
"5b57d2acbc04d60001e5e76e",3,0.613,"Accuracy","Fixed",-0.575282121542465,1,"incongruent"
"5b57d2acbc04d60001e5e76e",4,0.73,"Accuracy","Fixed",-0.193538797600772,1,"incongruent"
"5b57d2acbc04d60001e5e76e",5,0.524,"Accuracy","Fixed",0.239958835612275,1,"congruent"
"5b57d2acbc04d60001e5e76e",6,0.766,"Accuracy","Fixed",0.582333496945845,1,"incongruent"
"5b57d2acbc04d60001e5e76e",7,0.852,"Accuracy","Fixed",1.03175553301162,1,"incongruent"
"5b57d2acbc04d60001e5e76e",8,0.821,"Accuracy","Fixed",1.51921919811445,1,"congruent"
"5b57d2acbc04d60001e5e76e",9,0.832,"Accuracy","Fixed",1.99297018298299,1,"incongruent"
"5b57d2acbc04d60001e5e76e",1,0.782,"Accuracy","Fixed",-1.45687475725022,1,"congruent"
"5b57d2acbc04d60001e5e76e",2,0.863,"Accuracy","Fixed",-1.11096133972716,1,"incongruent"
"5b57d2acbc04d60001e5e76e",3,0.632,"Accuracy","Fixed",-0.61863188486377,1,"incongruent"
"5b57d2acbc04d60001e5e76e",4,0.608,"Accuracy","Fixed",-0.228484014972027,1,"congruent"
"5b57d2acbc04d60001e5e76e",5,0.699,"Accuracy","Fixed",0.151047586351232,1,"congruent"
"5b57d2acbc04d60001e5e76e",6,0.768,"Accuracy","Fixed",0.570832539329988,1,"incongruent"
"5b57d2acbc04d60001e5e76e",7,0.551,"Accuracy","Fixed",1.02113926444313,1,"congruent"
"5b57d2acbc04d60001e5e76e",8,0.569,"Accuracy","Fixed",1.37545722791625,1,"incongruent"
"5b57d2acbc04d60001e5e76e",1,0.683,"Accuracy","Fixed",-1.45687475725022,1,"congruent"
"5b57d2acbc04d60001e5e76e",2,0.708,"Accuracy","Fixed",-1.15475344757215,1,"incongruent"
"5b57d2acbc04d60001e5e76e",3,0.569,"Accuracy","Fixed",-0.730987393880212,1,"congruent"
"5b57d2acbc04d60001e5e76e",4,0.622,"Accuracy","Fixed",-0.368707228980737,1,"incongruent"
"5b57d2acbc04d60001e5e76e",5,0.773,"Accuracy","Fixed",0.0170171956741367,1,"incongruent"
"5b57d2acbc04d60001e5e76e",6,0.617,"Accuracy","Fixed",0.469535643405715,1,"incongruent"
"5b57d2acbc04d60001e5e76e",7,0.675,"Accuracy","Fixed",0.853048345442155,1,"incongruent"
"5b57d2acbc04d60001e5e76e",8,0.601,"Accuracy","Fixed",1.26221702985243,1,"congruent"
"5b57d2acbc04d60001e5e76e",9,0.571,"Accuracy","Fixed",1.63865221950988,1,"congruent"
"5b57d2acbc04d60001e5e76e",1,1.701,"Accuracy","Fixed",-1.45687475725022,1,"incongruent"
"5b57d2acbc04d60001e5e76e",2,0.509,"Accuracy","Fixed",-0.704446722459005,1,"congruent"
"5b57d2acbc04d60001e5e76e",3,0.591,"Accuracy","Fixed",-0.368707228980737,1,"congruent"
"5b57d2acbc04d60001e5e76e",4,0.993,"Accuracy","Fixed",0.00330451543984646,1,"incongruent"
"5b57d2acbc04d60001e5e76e",5,0.608,"Accuracy","Fixed",0.553138758382517,1,"incongruent"
"5b57d2acbc04d60001e5e76e",6,0.838,"Accuracy","Fixed",0.932670359705776,1,"congruent"
"5b57d2acbc04d60001e5e76e",7,0.605,"Accuracy","Fixed",1.413941201477,1,"congruent"
"5b57d2acbc04d60001e5e76e",1,0.672,"Accuracy","Fixed",-1.45687475725022,1,"congruent"
"5b57d2acbc04d60001e5e76e",2,0.766,"Accuracy","Fixed",-1.1596192373327,1,"incongruent"
"5b57d2acbc04d60001e5e76e",3,0.551,"Accuracy","Fixed",-0.710197201266933,1,"congruent"
"5b57d2acbc04d60001e5e76e",4,0.884,"Accuracy","Fixed",-0.355879237793821,1,"incongruent"
"5b57d2acbc04d60001e5e76e",5,0.617,"Accuracy","Fixed",0.14573945206699,1,"congruent"
"5b57d2acbc04d60001e5e76e",6,0.787,"Accuracy","Fixed",0.529252154103431,1,"incongruent"
"5b57d2acbc04d60001e5e76e",7,0.727,"Accuracy","Fixed",0.987963425166624,1,"incongruent"
"5b57d2acbc04d60001e5e76e",8,0.917,"Accuracy","Fixed",1.42013402480861,1,"congruent"
"5b57d2acbc04d60001e5e76e",9,0.903,"Accuracy","Fixed",1.93635008395109,1,"incongruent"
"5b57d2acbc04d60001e5e76e",1,0.909,"Accuracy","Fixed",-1.45687475725022,1,"congruent"
"5b57d2acbc04d60001e5e76e",2,0.751,"Accuracy","Fixed",-1.05478358521894,1,"incongruent"
"5b57d2acbc04d60001e5e76e",3,0.646,"Accuracy","Fixed",-0.611996717008468,1,"incongruent"
"5b57d2acbc04d60001e5e76e",4,0.954,"Accuracy","Fixed",-0.215656023785111,1,"congruent"
"5b57d2acbc04d60001e5e76e",5,1.086,"Accuracy","Fixed",0.316926782733775,1,"incongruent"
"5b57d2acbc04d60001e5e76e",6,0.579,"Accuracy","Fixed",0.907899066379316,1,"congruent"
"5b57d2acbc04d60001e5e76e",7,0.527,"Accuracy","Fixed",1.27460267651566,1,"incongruent"
"5b57d2acbc04d60001e5e76e",8,0.71,"Accuracy","Fixed",1.61830437142029,1,"incongruent"
"5b57d2acbc04d60001e5e76e",9,1.212,"Accuracy","Fixed",2.0429551141596,1,"congruent"
"5b57d2acbc04d60001e5e76e",1,1.197,"Accuracy","Fixed",-1.45687475725022,1,"congruent"
"5b57d2acbc04d60001e5e76e",2,0.651,"Accuracy","Fixed",-0.927388362397144,1,"incongruent"
"5b57d2acbc04d60001e5e76e",3,0.444,"Accuracy","Fixed",-0.528835946555353,1,"incongruent"
"5b57d2acbc04d60001e5e76e",4,0.753,"Accuracy","Fixed",-0.221848847116726,1,"incongruent"
"5b57d2acbc04d60001e5e76e",5,0.679,"Accuracy","Fixed",0.221822710141117,1,"congruent"
"5b57d2acbc04d60001e5e76e",6,0.831,"Accuracy","Fixed",0.632760772646138,1,"incongruent"
"5b57d2acbc04d60001e5e76e",7,0.775,"Accuracy","Fixed",1.11093520275155,1,"congruent"
"5b57d2acbc04d60001e5e76e",8,0.573,"Accuracy","Fixed",1.5643383395305,1,"congruent"
"5b57d2acbc04d60001e5e76e",9,0.593,"Accuracy","Fixed",1.92838788252472,1,"incongruent"
"5b57d2acbc04d60001e5e76e",1,0.66,"Accuracy","Fixed",-1.45687475725022,1,"incongruent"
"5b57d2acbc04d60001e5e76e",2,0.532,"Accuracy","Fixed",-1.16492737161695,1,"congruent"
"5b57d2acbc04d60001e5e76e",3,0.572,"Accuracy","Fixed",-0.819013954093882,1,"congruent"
"5b57d2acbc04d60001e5e76e",4,0.587,"Accuracy","Fixed",-0.455406755623347,1,"incongruent"
"5b57d2acbc04d60001e5e76e",5,0.681,"Accuracy","Fixed",-0.08516438929751,1,"incongruent"
"5b57d2acbc04d60001e5e76e",6,0.526,"Accuracy","Fixed",0.326658362254884,1,"congruent"
"5b57d2acbc04d60001e5e76e",7,0.539,"Accuracy","Fixed",0.669917712635827,1,"congruent"
"5b57d2acbc04d60001e5e76e",1,0.802,"Accuracy","Fixed",-1.45687475725022,1,"congruent"
"5b57d2acbc04d60001e5e76e",2,0.586,"Accuracy","Fixed",-1.10211444925342,1,"incongruent"
"5b57d2acbc04d60001e5e76e",3,0.935,"Accuracy","Fixed",-0.732314427451273,1,"incongruent"
"5b57d2acbc04d60001e5e76e",4,0.626,"Accuracy","Fixed",-0.208136166882435,1,"congruent"
"5b57d2acbc04d60001e5e76e",5,0.613,"Accuracy","Fixed",0.179357635867186,1,"congruent"
"5b57d2acbc04d60001e5e76e",6,0.561,"Accuracy","Fixed",0.561100959808879,1,"incongruent"
"5b57d2acbc04d60001e5e76e",7,0.528,"Accuracy","Fixed",0.919842368518859,1,"congruent"
"5b57d2acbc04d60001e5e76e",8,0.772,"Accuracy","Fixed",1.26398640794718,1,"incongruent"
"5b57d2acbc04d60001e5e76e",1,0.737,"Accuracy","Fixed",-1.45687475725022,1,"incongruent"
"5b57d2acbc04d60001e5e76e",2,0.632,"Accuracy","Fixed",-1.13086684329306,1,"congruent"
"5b57d2acbc04d60001e5e76e",3,0.591,"Accuracy","Fixed",-0.740718973401321,1,"incongruent"
"5b57d2acbc04d60001e5e76e",4,0.839,"Accuracy","Fixed",-0.368707228980737,1,"congruent"
"5b57d2acbc04d60001e5e76e",5,0.784,"Accuracy","Fixed",0.113005957314168,1,"incongruent"
"5b57d2acbc04d60001e5e76e",6,1.218,"Accuracy","Fixed",0.570390194806301,1,"incongruent"
"5b57d2acbc04d60001e5e76e",7,0.706,"Accuracy","Fixed",1.2197519555785,1,"incongruent"
"5b57d2acbc04d60001e5e76e",1,0.971,"Accuracy","Fixed",-1.45687475725022,1,"congruent"
"5b57d2acbc04d60001e5e76e",2,0.575,"Accuracy","Fixed",-1.02735822475036,1,"incongruent"
"5b57d2acbc04d60001e5e76e",3,0.606,"Accuracy","Fixed",-0.662423992708761,1,"congruent"
"5b57d2acbc04d60001e5e76e",4,0.675,"Accuracy","Fixed",-0.283777080432875,1,"incongruent"
"5b57d2acbc04d60001e5e76e",5,0.594,"Accuracy","Fixed",0.125391603977398,1,"congruent"
"5b57d2acbc04d60001e5e76e",6,0.729,"Accuracy","Fixed",0.498730381969043,1,"incongruent"
"5b57d2acbc04d60001e5e76e",7,0.547,"Accuracy","Fixed",0.931785670658403,1,"congruent"
"5b57d2acbc04d60001e5e76e",8,0.729,"Accuracy","Fixed",1.28433425603677,1,"incongruent"
"5b57d2acbc04d60001e5e76e",9,0.533,"Accuracy","Fixed",1.71738954472613,1,"congruent"
"5b57d2acbc04d60001e5e76e",1,0.755,"Accuracy","Fixed",-1.45687475725022,1,"congruent"
