phase,uniqueid,distractor,target,type,response,hit,rt,trialNum,initrt,stimOn,stimOff,startTime,moneyEarned,sessionNum,blockNum,blockType,intervalNum,intervalType,intervalLength,iti,isi
MainBlock,5ef3832ddd7d5a0f19b24f20:TSS_RECONF_111022,RED,yellow,incongruent,yellow,1.0,1253.0,1.0,,1668960036753.0,1668960038006.0,1668960036753.0,0.0,0.0,1.0,Mixed_1000,1.0,Speed,5000.0,2000.0,1000.0
MainBlock,5ef3832ddd7d5a0f19b24f20:TSS_RECONF_111022,BLUE,blue,congruent,blue,1.0,551.0,2.0,,1668960038523.0,1668960039074.0,1668960036753.0,0.0,0.0,1.0,Mixed_1000,1.0,Speed,5000.0,2000.0,1000.0
MainBlock,5ef3832ddd7d5a0f19b24f20:TSS_RECONF_111022,YELLOW,yellow,congruent,yellow,1.0,644.0,3.0,,1668960039593.0,1668960040237.0,1668960036753.0,0.0,0.0,1.0,Mixed_1000,1.0,Speed,5000.0,2000.0,1000.0
MainBlock,5ef3832ddd7d5a0f19b24f20:TSS_RECONF_111022,GREEN,blue,incongruent,green,0.0,603.0,4.0,,1668960040743.0,1668960041346.0,1668960036753.0,0.0,0.0,1.0,Mixed_1000,1.0,Speed,5000.0,2000.0,1000.0
MainBlock,5ef3832ddd7d5a0f19b24f20:TSS_RECONF_111022,,,,,,,,,,,,0.0,0.0,1.0,Mixed_1000,1.0,Speed,5000.0,2000.0,1000.0
MainBlock,5ef3832ddd7d5a0f19b24f20:TSS_RECONF_111022,RED,red,congruent,red,1.0,524.0,1.0,,1668960047048.0,1668960047572.0,1668960047048.0,0.0,0.0,1.0,Mixed_1000,2.0,Accuracy,6000.0,1000.0,1000.0
MainBlock,5ef3832ddd7d5a0f19b24f20:TSS_RECONF_111022,BLUE,yellow,incongruent,yellow,1.0,525.0,2.0,,1668960048087.0,1668960048612.0,1668960047048.0,0.0,0.0,1.0,Mixed_1000,2.0,Accuracy,6000.0,1000.0,1000.0
MainBlock,5ef3832ddd7d5a0f19b24f20:TSS_RECONF_111022,GREEN,red,incongruent,red,1.0,594.0,3.0,,1668960049125.0,1668960049719.0,1668960047048.0,0.0,0.0,1.0,Mixed_1000,2.0,Accuracy,6000.0,1000.0,1000.0
MainBlock,5ef3832ddd7d5a0f19b24f20:TSS_RECONF_111022,BLUE,green,incongruent,blue,0.0,571.0,4.0,,1668960050241.0,1668960050812.0,1668960047048.0,0.0,0.0,1.0,Mixed_1000,2.0,Accuracy,6000.0,1000.0,1000.0
MainBlock,5ef3832ddd7d5a0f19b24f20:TSS_RECONF_111022,RED,red,congruent,red,1.0,566.0,5.0,,1668960051325.0,1668960051891.0,1668960047048.0,0.0,0.0,1.0,Mixed_1000,2.0,Accuracy,6000.0,1000.0,1000.0
MainBlock,5ef3832ddd7d5a0f19b24f20:TSS_RECONF_111022,,,,,,,,,,,,0.0,0.0,1.0,Mixed_1000,2.0,Accuracy,6000.0,1000.0,1000.0
MainBlock,5ef3832ddd7d5a0f19b24f20:TSS_RECONF_111022,BLUE,blue,congruent,red,0.0,798.0,1.0,,1668960059350.0,1668960060148.0,1668960059349.0,0.0,0.0,1.0,Mixed_1000,3.0,Speed,7000.0,2000.0,1000.0
MainBlock,5ef3832ddd7d5a0f19b24f20:TSS_RECONF_111022,GREEN,yellow,incongruent,yellow,1.0,676.0,2.0,,1668960060658.0,1668960061334.0,1668960059349.0,0.0,0.0,1.0,Mixed_1000,3.0,Speed,7000.0,2000.0,1000.0
MainBlock,5ef3832ddd7d5a0f19b24f20:TSS_RECONF_111022,YELLOW,red,incongruent,red,1.0,587.0,3.0,,1668960061855.0,1668960062442.0,1668960059349.0,0.0,0.0,1.0,Mixed_1000,3.0,Speed,7000.0,2000.0,1000.0
MainBlock,5ef3832ddd7d5a0f19b24f20:TSS_RECONF_111022,RED,yellow,incongruent,yellow,1.0,619.0,4.0,,1668960062956.0,1668960063575.0,1668960059349.0,0.0,0.0,1.0,Mixed_1000,3.0,Speed,7000.0,2000.0,1000.0
MainBlock,5ef3832ddd7d5a0f19b24f20:TSS_RECONF_111022,GREEN,green,congruent,green,1.0,547.0,5.0,,1668960064091.0,1668960064638.0,1668960059349.0,0.0,0.0,1.0,Mixed_1000,3.0,Speed,7000.0,2000.0,1000.0
MainBlock,5ef3832ddd7d5a0f19b24f20:TSS_RECONF_111022,BLUE,blue,congruent,blue,1.0,488.0,6.0,,1668960065159.0,1668960065647.0,1668960059349.0,0.0,0.0,1.0,Mixed_1000,3.0,Speed,7000.0,2000.0,1000.0
MainBlock,5ef3832ddd7d5a0f19b24f20:TSS_RECONF_111022,,,,,,,,,,,,0.0,0.0,1.0,Mixed_1000,3.0,Speed,7000.0,2000.0,1000.0
MainBlock,5ef3832ddd7d5a0f19b24f20:TSS_RECONF_111022,BLUE,blue,congruent,blue,1.0,776.0,1.0,,1668960072638.0,1668960073414.0,1668960072637.0,0.0,0.0,1.0,Mixed_1000,4.0,Accuracy,7000.0,2000.0,1000.0
MainBlock,5ef3832ddd7d5a0f19b24f20:TSS_RECONF_111022,YELLOW,red,incongruent,red,1.0,529.0,2.0,,1668960073928.0,1668960074457.0,1668960072637.0,0.0,0.0,1.0,Mixed_1000,4.0,Accuracy,7000.0,2000.0,1000.0
MainBlock,5ef3832ddd7d5a0f19b24f20:TSS_RECONF_111022,BLUE,green,incongruent,green,1.0,592.0,3.0,,1668960074963.0,1668960075555.0,1668960072637.0,0.0,0.0,1.0,Mixed_1000,4.0,Accuracy,7000.0,2000.0,1000.0
MainBlock,5ef3832ddd7d5a0f19b24f20:TSS_RECONF_111022,RED,blue,incongruent,blue,1.0,869.0,4.0,,1668960076062.0,1668960076931.0,1668960072637.0,0.0,0.0,1.0,Mixed_1000,4.0,Accuracy,7000.0,2000.0,1000.0
MainBlock,5ef3832ddd7d5a0f19b24f20:TSS_RECONF_111022,YELLOW,yellow,congruent,yellow,1.0,511.0,5.0,,1668960077439.0,1668960077950.0,1668960072637.0,0.0,0.0,1.0,Mixed_1000,4.0,Accuracy,7000.0,2000.0,1000.0
MainBlock,5ef3832ddd7d5a0f19b24f20:TSS_RECONF_111022,GREEN,red,incongruent,red,1.0,716.0,6.0,,1668960078460.0,1668960079176.0,1668960072637.0,0.0,0.0,1.0,Mixed_1000,4.0,Accuracy,7000.0,2000.0,1000.0
MainBlock,5ef3832ddd7d5a0f19b24f20:TSS_RECONF_111022,,,,,,,,,,,,0.0,0.0,1.0,Mixed_1000,4.0,Accuracy,7000.0,2000.0,1000.0
MainBlock,5ef3832ddd7d5a0f19b24f20:TSS_RECONF_111022,GREEN,green,congruent,green,1.0,670.0,1.0,,1668960085927.0,1668960086597.0,1668960085927.0,0.0,0.0,1.0,Mixed_1000,5.0,Speed,7000.0,2000.0,1000.0
MainBlock,5ef3832ddd7d5a0f19b24f20:TSS_RECONF_111022,RED,yellow,incongruent,yellow,1.0,795.0,2.0,,1668960087107.0,1668960087902.0,1668960085927.0,0.0,0.0,1.0,Mixed_1000,5.0,Speed,7000.0,2000.0,1000.0
MainBlock,5ef3832ddd7d5a0f19b24f20:TSS_RECONF_111022,GREEN,green,congruent,green,1.0,570.0,3.0,,1668960088416.0,1668960088986.0,1668960085927.0,0.0,0.0,1.0,Mixed_1000,5.0,Speed,7000.0,2000.0,1000.0
MainBlock,5ef3832ddd7d5a0f19b24f20:TSS_RECONF_111022,BLUE,yellow,incongruent,yellow,1.0,677.0,4.0,,1668960089497.0,1668960090174.0,1668960085927.0,0.0,0.0,1.0,Mixed_1000,5.0,Speed,7000.0,2000.0,1000.0
MainBlock,5ef3832ddd7d5a0f19b24f20:TSS_RECONF_111022,YELLOW,red,incongruent,red,1.0,423.0,5.0,,1668960090695.0,1668960091118.0,1668960085927.0,0.0,0.0,1.0,Mixed_1000,5.0,Speed,7000.0,2000.0,1000.0
MainBlock,5ef3832ddd7d5a0f19b24f20:TSS_RECONF_111022,GREEN,green,congruent,green,1.0,739.0,6.0,,1668960091635.0,1668960092374.0,1668960085927.0,0.0,0.0,1.0,Mixed_1000,5.0,Speed,7000.0,2000.0,1000.0
MainBlock,5ef3832ddd7d5a0f19b24f20:TSS_RECONF_111022,,,,,,,,,,,,0.0,0.0,1.0,Mixed_1000,5.0,Speed,7000.0,2000.0,1000.0
MainBlock,5ef3832ddd7d5a0f19b24f20:TSS_RECONF_111022,GREEN,red,incongruent,red,1.0,495.0,1.0,,1668960098721.0,1668960099216.0,1668960098721.0,0.0,0.0,1.0,Mixed_1000,6.0,Accuracy,6000.0,1500.0,1000.0
MainBlock,5ef3832ddd7d5a0f19b24f20:TSS_RECONF_111022,YELLOW,yellow,congruent,yellow,1.0,481.0,2.0,,1668960099724.0,1668960100205.0,1668960098721.0,0.0,0.0,1.0,Mixed_1000,6.0,Accuracy,6000.0,1500.0,1000.0
MainBlock,5ef3832ddd7d5a0f19b24f20:TSS_RECONF_111022,BLUE,blue,congruent,green,0.0,721.0,3.0,,1668960100716.0,1668960101437.0,1668960098721.0,0.0,0.0,1.0,Mixed_1000,6.0,Accuracy,6000.0,1500.0,1000.0
MainBlock,5ef3832ddd7d5a0f19b24f20:TSS_RECONF_111022,GREEN,yellow,incongruent,yellow,1.0,652.0,4.0,,1668960101947.0,1668960102599.0,1668960098721.0,0.0,0.0,1.0,Mixed_1000,6.0,Accuracy,6000.0,1500.0,1000.0
MainBlock,5ef3832ddd7d5a0f19b24f20:TSS_RECONF_111022,BLUE,blue,congruent,blue,1.0,392.0,5.0,,1668960103112.0,1668960103504.0,1668960098721.0,0.0,0.0,1.0,Mixed_1000,6.0,Accuracy,6000.0,1500.0,1000.0
MainBlock,5ef3832ddd7d5a0f19b24f20:TSS_RECONF_111022,RED,green,incongruent,green,1.0,664.0,6.0,,1668960104024.0,1668960104688.0,1668960098721.0,0.0,0.0,1.0,Mixed_1000,6.0,Accuracy,6000.0,1500.0,1000.0
MainBlock,5ef3832ddd7d5a0f19b24f20:TSS_RECONF_111022,,,,,,,,,,,,0.0,0.0,1.0,Mixed_1000,6.0,Accuracy,6000.0,1500.0,1000.0
MainBlock,5ef3832ddd7d5a0f19b24f20:TSS_RECONF_111022,GREEN,red,incongruent,red,1.0,521.0,1.0,,1668960110988.0,1668960111509.0,1668960110988.0,0.0,0.0,1.0,Mixed_1000,7.0,Speed,7000.0,2000.0,1000.0
MainBlock,5ef3832ddd7d5a0f19b24f20:TSS_RECONF_111022,BLUE,blue,congruent,blue,1.0,786.0,2.0,,1668960112013.0,1668960112799.0,1668960110988.0,0.0,0.0,1.0,Mixed_1000,7.0,Speed,7000.0,2000.0,1000.0
MainBlock,5ef3832ddd7d5a0f19b24f20:TSS_RECONF_111022,YELLOW,red,incongruent,red,1.0,565.0,3.0,,1668960113303.0,1668960113868.0,1668960110988.0,0.0,0.0,1.0,Mixed_1000,7.0,Speed,7000.0,2000.0,1000.0
MainBlock,5ef3832ddd7d5a0f19b24f20:TSS_RECONF_111022,RED,yellow,incongruent,yellow,1.0,494.0,4.0,,1668960114383.0,1668960114877.0,1668960110988.0,0.0,0.0,1.0,Mixed_1000,7.0,Speed,7000.0,2000.0,1000.0
MainBlock,5ef3832ddd7d5a0f19b24f20:TSS_RECONF_111022,BLUE,blue,congruent,blue,1.0,549.0,5.0,,1668960115391.0,1668960115940.0,1668960110988.0,0.0,0.0,1.0,Mixed_1000,7.0,Speed,7000.0,2000.0,1000.0
MainBlock,5ef3832ddd7d5a0f19b24f20:TSS_RECONF_111022,YELLOW,red,incongruent,red,1.0,631.0,6.0,,1668960116442.0,1668960117073.0,1668960110988.0,0.0,0.0,1.0,Mixed_1000,7.0,Speed,7000.0,2000.0,1000.0
MainBlock,5ef3832ddd7d5a0f19b24f20:TSS_RECONF_111022,,,,,,,,,,,,0.0,0.0,1.0,Mixed_1000,7.0,Speed,7000.0,2000.0,1000.0
MainBlock,5ef3832ddd7d5a0f19b24f20:TSS_RECONF_111022,RED,yellow,incongruent,yellow,1.0,781.0,1.0,,1668960123782.0,1668960124563.0,1668960123782.0,0.0,0.0,1.0,Mixed_1000,8.0,Accuracy,5000.0,1500.0,1000.0
MainBlock,5ef3832ddd7d5a0f19b24f20:TSS_RECONF_111022,GREEN,green,congruent,green,1.0,546.0,2.0,,1668960125075.0,1668960125621.0,1668960123782.0,0.0,0.0,1.0,Mixed_1000,8.0,Accuracy,5000.0,1500.0,1000.0
MainBlock,5ef3832ddd7d5a0f19b24f20:TSS_RECONF_111022,YELLOW,blue,incongruent,blue,1.0,430.0,3.0,,1668960126126.0,1668960126556.0,1668960123782.0,0.0,0.0,1.0,Mixed_1000,8.0,Accuracy,5000.0,1500.0,1000.0
MainBlock,5ef3832ddd7d5a0f19b24f20:TSS_RECONF_111022,BLUE,yellow,incongruent,yellow,1.0,540.0,4.0,,1668960127069.0,1668960127609.0,1668960123782.0,0.0,0.0,1.0,Mixed_1000,8.0,Accuracy,5000.0,1500.0,1000.0
MainBlock,5ef3832ddd7d5a0f19b24f20:TSS_RECONF_111022,RED,red,congruent,red,1.0,414.0,5.0,,1668960128120.0,1668960128534.0,1668960123782.0,0.0,0.0,1.0,Mixed_1000,8.0,Accuracy,5000.0,1500.0,1000.0
MainBlock,5ef3832ddd7d5a0f19b24f20:TSS_RECONF_111022,,,,,,,,,,,,0.0,0.0,1.0,Mixed_1000,8.0,Accuracy,5000.0,1500.0,1000.0
MainBlock,5ef3832ddd7d5a0f19b24f20:TSS_RECONF_111022,BLUE,yellow,incongruent,yellow,1.0,531.0,1.0,,1668960134078.0,1668960134609.0,1668960134078.0,0.0,0.0,1.0,Mixed_1000,9.0,Speed,7000.0,1000.0,1000.0
MainBlock,5ef3832ddd7d5a0f19b24f20:TSS_RECONF_111022,GREEN,green,congruent,green,1.0,562.0,2.0,,1668960135115.0,1668960135677.0,1668960134078.0,0.0,0.0,1.0,Mixed_1000,9.0,Speed,7000.0,1000.0,1000.0
MainBlock,5ef3832ddd7d5a0f19b24f20:TSS_RECONF_111022,BLUE,blue,congruent,blue,1.0,522.0,3.0,,1668960136180.0,1668960136702.0,1668960134078.0,0.0,0.0,1.0,Mixed_1000,9.0,Speed,7000.0,1000.0,1000.0
MainBlock,5ef3832ddd7d5a0f19b24f20:TSS_RECONF_111022,GREEN,yellow,incongruent,yellow,1.0,462.0,4.0,,1668960137215.0,1668960137677.0,1668960134078.0,0.0,0.0,1.0,Mixed_1000,9.0,Speed,7000.0,1000.0,1000.0
MainBlock,5ef3832ddd7d5a0f19b24f20:TSS_RECONF_111022,YELLOW,blue,incongruent,blue,1.0,653.0,5.0,,1668960138190.0,1668960138843.0,1668960134078.0,0.0,0.0,1.0,Mixed_1000,9.0,Speed,7000.0,1000.0,1000.0
MainBlock,5ef3832ddd7d5a0f19b24f20:TSS_RECONF_111022,RED,green,incongruent,green,1.0,617.0,6.0,,1668960139354.0,1668960139971.0,1668960134078.0,0.0,0.0,1.0,Mixed_1000,9.0,Speed,7000.0,1000.0,1000.0
MainBlock,5ef3832ddd7d5a0f19b24f20:TSS_RECONF_111022,YELLOW,red,incongruent,red,1.0,589.0,7.0,,1668960140475.0,1668960141064.0,1668960134078.0,0.0,0.0,1.0,Mixed_1000,9.0,Speed,7000.0,1000.0,1000.0
MainBlock,5ef3832ddd7d5a0f19b24f20:TSS_RECONF_111022,,,,,,,,,,,,0.0,0.0,1.0,Mixed_1000,9.0,Speed,7000.0,1000.0,1000.0
MainBlock,5ef3832ddd7d5a0f19b24f20:TSS_RECONF_111022,GREEN,blue,incongruent,blue,1.0,894.0,1.0,,1668960146865.0,1668960147759.0,1668960146864.0,0.0,0.0,1.0,Mixed_1000,10.0,Accuracy,7000.0,1500.0,1000.0
MainBlock,5ef3832ddd7d5a0f19b24f20:TSS_RECONF_111022,RED,red,congruent,red,1.0,500.0,2.0,,1668960148271.0,1668960148771.0,1668960146864.0,0.0,0.0,1.0,Mixed_1000,10.0,Accuracy,7000.0,1500.0,1000.0
MainBlock,5ef3832ddd7d5a0f19b24f20:TSS_RECONF_111022,YELLOW,yellow,congruent,yellow,1.0,379.0,3.0,,1668960149288.0,1668960149667.0,1668960146864.0,0.0,0.0,1.0,Mixed_1000,10.0,Accuracy,7000.0,1500.0,1000.0
MainBlock,5ef3832ddd7d5a0f19b24f20:TSS_RECONF_111022,GREEN,blue,incongruent,blue,1.0,660.0,4.0,,1668960150184.0,1668960150844.0,1668960146864.0,0.0,0.0,1.0,Mixed_1000,10.0,Accuracy,7000.0,1500.0,1000.0
MainBlock,5ef3832ddd7d5a0f19b24f20:TSS_RECONF_111022,RED,green,incongruent,green,1.0,647.0,5.0,,1668960151360.0,1668960152007.0,1668960146864.0,0.0,0.0,1.0,Mixed_1000,10.0,Accuracy,7000.0,1500.0,1000.0
MainBlock,5ef3832ddd7d5a0f19b24f20:TSS_RECONF_111022,BLUE,blue,congruent,blue,1.0,842.0,6.0,,1668960152525.0,1668960153367.0,1668960146864.0,0.0,0.0,1.0,Mixed_1000,10.0,Accuracy,7000.0,1500.0,1000.0
MainBlock,5ef3832ddd7d5a0f19b24f20:TSS_RECONF_111022,,,,,,,,,,,,0.0,0.0,1.0,Mixed_1000,10.0,Accuracy,7000.0,1500.0,1000.0
MainBlock,5ef3832ddd7d5a0f19b24f20:TSS_RECONF_111022,RED,red,congruent,red,1.0,673.0,1.0,,1668960159150.0,1668960159823.0,1668960159150.0,0.0,0.0,1.0,Mixed_1000,11.0,Speed,5000.0,1000.0,1000.0
MainBlock,5ef3832ddd7d5a0f19b24f20:TSS_RECONF_111022,BLUE,yellow,incongruent,yellow,1.0,601.0,2.0,,1668960160335.0,1668960160936.0,1668960159150.0,0.0,0.0,1.0,Mixed_1000,11.0,Speed,5000.0,1000.0,1000.0
MainBlock,5ef3832ddd7d5a0f19b24f20:TSS_RECONF_111022,RED,red,congruent,red,1.0,517.0,3.0,,1668960161448.0,1668960161965.0,1668960159150.0,0.0,0.0,1.0,Mixed_1000,11.0,Speed,5000.0,1000.0,1000.0
MainBlock,5ef3832ddd7d5a0f19b24f20:TSS_RECONF_111022,GREEN,yellow,incongruent,yellow,1.0,641.0,4.0,,1668960162481.0,1668960163122.0,1668960159150.0,0.0,0.0,1.0,Mixed_1000,11.0,Speed,5000.0,1000.0,1000.0
MainBlock,5ef3832ddd7d5a0f19b24f20:TSS_RECONF_111022,,,,,,,,,,,,0.0,0.0,1.0,Mixed_1000,11.0,Speed,5000.0,1000.0,1000.0
MainBlock,5ef3832ddd7d5a0f19b24f20:TSS_RECONF_111022,GREEN,red,incongruent,red,1.0,521.0,1.0,,1668960170438.0,1668960170959.0,1668960170437.0,0.0,0.0,1.0,Mixed_1000,12.0,Accuracy,5000.0,2000.0,1000.0
MainBlock,5ef3832ddd7d5a0f19b24f20:TSS_RECONF_111022,BLUE,blue,congruent,blue,1.0,580.0,2.0,,1668960171477.0,1668960172057.0,1668960170437.0,0.0,0.0,1.0,Mixed_1000,12.0,Accuracy,5000.0,2000.0,1000.0
MainBlock,5ef3832ddd7d5a0f19b24f20:TSS_RECONF_111022,YELLOW,green,incongruent,green,1.0,395.0,3.0,,1668960172563.0,1668960172958.0,1668960170437.0,0.0,0.0,1.0,Mixed_1000,12.0,Accuracy,5000.0,2000.0,1000.0
MainBlock,5ef3832ddd7d5a0f19b24f20:TSS_RECONF_111022,RED,blue,incongruent,blue,1.0,788.0,4.0,,1668960173470.0,1668960174258.0,1668960170437.0,0.0,0.0,1.0,Mixed_1000,12.0,Accuracy,5000.0,2000.0,1000.0
MainBlock,5ef3832ddd7d5a0f19b24f20:TSS_RECONF_111022,GREEN,green,congruent,green,1.0,575.0,5.0,,1668960174766.0,1668960175341.0,1668960170437.0,0.0,0.0,1.0,Mixed_1000,12.0,Accuracy,5000.0,2000.0,1000.0
MainBlock,5ef3832ddd7d5a0f19b24f20:TSS_RECONF_111022,,,,,,,,,,,,0.0,0.0,1.0,Mixed_1000,12.0,Accuracy,5000.0,2000.0,1000.0
MainBlock,5ef3832ddd7d5a0f19b24f20:TSS_RECONF_111022,GREEN,yellow,incongruent,yellow,1.0,688.0,1.0,,1668960180728.0,1668960181416.0,1668960180727.0,0.0,0.0,1.0,Mixed_1000,13.0,Speed,7000.0,1000.0,1000.0
MainBlock,5ef3832ddd7d5a0f19b24f20:TSS_RECONF_111022,RED,red,congruent,red,1.0,394.0,2.0,,1668960181927.0,1668960182321.0,1668960180727.0,0.0,0.0,1.0,Mixed_1000,13.0,Speed,7000.0,1000.0,1000.0
MainBlock,5ef3832ddd7d5a0f19b24f20:TSS_RECONF_111022,BLUE,blue,congruent,blue,1.0,514.0,3.0,,1668960182836.0,1668960183350.0,1668960180727.0,0.0,0.0,1.0,Mixed_1000,13.0,Speed,7000.0,1000.0,1000.0
MainBlock,5ef3832ddd7d5a0f19b24f20:TSS_RECONF_111022,GREEN,yellow,incongruent,yellow,1.0,578.0,4.0,,1668960183860.0,1668960184438.0,1668960180727.0,0.0,0.0,1.0,Mixed_1000,13.0,Speed,7000.0,1000.0,1000.0
MainBlock,5ef3832ddd7d5a0f19b24f20:TSS_RECONF_111022,YELLOW,blue,incongruent,blue,1.0,920.0,5.0,,1668960184947.0,1668960185867.0,1668960180727.0,0.0,0.0,1.0,Mixed_1000,13.0,Speed,7000.0,1000.0,1000.0
MainBlock,5ef3832ddd7d5a0f19b24f20:TSS_RECONF_111022,BLUE,green,incongruent,green,1.0,490.0,6.0,,1668960186381.0,1668960186871.0,1668960180727.0,0.0,0.0,1.0,Mixed_1000,13.0,Speed,7000.0,1000.0,1000.0
MainBlock,5ef3832ddd7d5a0f19b24f20:TSS_RECONF_111022,,,,,,,,,,,,0.0,0.0,1.0,Mixed_1000,13.0,Speed,7000.0,1000.0,1000.0
MainBlock,5ef3832ddd7d5a0f19b24f20:TSS_RECONF_111022,GREEN,green,congruent,blue,0.0,703.0,1.0,,1668960193510.0,1668960194213.0,1668960193509.0,0.0,0.0,1.0,Mixed_1000,14.0,Accuracy,6000.0,1500.0,1000.0
MainBlock,5ef3832ddd7d5a0f19b24f20:TSS_RECONF_111022,BLUE,red,incongruent,yellow,0.0,813.0,2.0,,1668960194720.0,1668960195533.0,1668960193509.0,0.0,0.0,1.0,Mixed_1000,14.0,Accuracy,6000.0,1500.0,1000.0
MainBlock,5ef3832ddd7d5a0f19b24f20:TSS_RECONF_111022,GREEN,blue,incongruent,blue,1.0,703.0,3.0,,1668960196047.0,1668960196750.0,1668960193509.0,0.0,0.0,1.0,Mixed_1000,14.0,Accuracy,6000.0,1500.0,1000.0
MainBlock,5ef3832ddd7d5a0f19b24f20:TSS_RECONF_111022,YELLOW,green,incongruent,green,1.0,683.0,4.0,,1668960197264.0,1668960197947.0,1668960193509.0,0.0,0.0,1.0,Mixed_1000,14.0,Accuracy,6000.0,1500.0,1000.0
MainBlock,5ef3832ddd7d5a0f19b24f20:TSS_RECONF_111022,BLUE,blue,congruent,blue,1.0,780.0,5.0,,1668960198463.0,1668960199243.0,1668960193509.0,0.0,0.0,1.0,Mixed_1000,14.0,Accuracy,6000.0,1500.0,1000.0
MainBlock,5ef3832ddd7d5a0f19b24f20:TSS_RECONF_111022,,,,,,,,,,,,0.0,0.0,1.0,Mixed_1000,14.0,Accuracy,6000.0,1500.0,1000.0
MainBlock,5ef3832ddd7d5a0f19b24f20:TSS_RECONF_111022,YELLOW,green,incongruent,blue,0.0,625.0,1.0,,1668960205805.0,1668960206430.0,1668960205805.0,0.0,0.0,1.0,Mixed_1000,15.0,Speed,6000.0,2000.0,1000.0
MainBlock,5ef3832ddd7d5a0f19b24f20:TSS_RECONF_111022,RED,red,congruent,red,1.0,535.0,2.0,,1668960206939.0,1668960207474.0,1668960205805.0,0.0,0.0,1.0,Mixed_1000,15.0,Speed,6000.0,2000.0,1000.0
MainBlock,5ef3832ddd7d5a0f19b24f20:TSS_RECONF_111022,YELLOW,green,incongruent,green,1.0,610.0,3.0,,1668960207978.0,1668960208588.0,1668960205805.0,0.0,0.0,1.0,Mixed_1000,15.0,Speed,6000.0,2000.0,1000.0
MainBlock,5ef3832ddd7d5a0f19b24f20:TSS_RECONF_111022,BLUE,yellow,incongruent,yellow,1.0,746.0,4.0,,1668960209097.0,1668960209843.0,1668960205805.0,0.0,0.0,1.0,Mixed_1000,15.0,Speed,6000.0,2000.0,1000.0
MainBlock,5ef3832ddd7d5a0f19b24f20:TSS_RECONF_111022,RED,red,congruent,red,1.0,551.0,5.0,,1668960210355.0,1668960210906.0,1668960205805.0,0.0,0.0,1.0,Mixed_1000,15.0,Speed,6000.0,2000.0,1000.0
MainBlock,5ef3832ddd7d5a0f19b24f20:TSS_RECONF_111022,,,,,,,,,,,,0.0,0.0,1.0,Mixed_1000,15.0,Speed,6000.0,2000.0,1000.0
MainBlock,5ef3832ddd7d5a0f19b24f20:TSS_RECONF_111022,RED,red,congruent,red,1.0,770.0,1.0,,1668960217097.0,1668960217867.0,1668960217097.0,0.0,0.0,1.0,Mixed_1000,16.0,Accuracy,6000.0,1000.0,1000.0
MainBlock,5ef3832ddd7d5a0f19b24f20:TSS_RECONF_111022,BLUE,green,incongruent,blue,0.0,625.0,2.0,,1668960218374.0,1668960218999.0,1668960217097.0,0.0,0.0,1.0,Mixed_1000,16.0,Accuracy,6000.0,1000.0,1000.0
MainBlock,5ef3832ddd7d5a0f19b24f20:TSS_RECONF_111022,RED,red,congruent,red,1.0,594.0,3.0,,1668960219508.0,1668960220102.0,1668960217097.0,0.0,0.0,1.0,Mixed_1000,16.0,Accuracy,6000.0,1000.0,1000.0
MainBlock,5ef3832ddd7d5a0f19b24f20:TSS_RECONF_111022,YELLOW,green,incongruent,green,1.0,846.0,4.0,,1668960220612.0,1668960221458.0,1668960217097.0,0.0,0.0,1.0,Mixed_1000,16.0,Accuracy,6000.0,1000.0,1000.0
MainBlock,5ef3832ddd7d5a0f19b24f20:TSS_RECONF_111022,RED,red,congruent,red,1.0,708.0,5.0,,1668960221972.0,1668960222680.0,1668960217097.0,0.0,0.0,1.0,Mixed_1000,16.0,Accuracy,6000.0,1000.0,1000.0
MainBlock,5ef3832ddd7d5a0f19b24f20:TSS_RECONF_111022,,,,,,,,,,,,0.0,0.0,1.0,Mixed_1000,16.0,Accuracy,6000.0,1000.0,1000.0
MainBlock,5ef3832ddd7d5a0f19b24f20:TSS_RECONF_111022,BLUE,red,incongruent,red,1.0,545.0,1.0,,1668960229397.0,1668960229942.0,1668960229397.0,0.0,0.0,1.0,Mixed_1000,17.0,Speed,7000.0,2000.0,1000.0
MainBlock,5ef3832ddd7d5a0f19b24f20:TSS_RECONF_111022,GREEN,green,congruent,green,1.0,652.0,2.0,,1668960230452.0,1668960231104.0,1668960229397.0,0.0,0.0,1.0,Mixed_1000,17.0,Speed,7000.0,2000.0,1000.0
MainBlock,5ef3832ddd7d5a0f19b24f20:TSS_RECONF_111022,YELLOW,yellow,congruent,yellow,1.0,681.0,3.0,,1668960231617.0,1668960232298.0,1668960229397.0,0.0,0.0,1.0,Mixed_1000,17.0,Speed,7000.0,2000.0,1000.0
MainBlock,5ef3832ddd7d5a0f19b24f20:TSS_RECONF_111022,BLUE,red,incongruent,red,1.0,490.0,4.0,,1668960232816.0,1668960233306.0,1668960229397.0,0.0,0.0,1.0,Mixed_1000,17.0,Speed,7000.0,2000.0,1000.0
MainBlock,5ef3832ddd7d5a0f19b24f20:TSS_RECONF_111022,YELLOW,yellow,congruent,yellow,1.0,679.0,5.0,,1668960233823.0,1668960234503.0,1668960229397.0,0.0,0.0,1.0,Mixed_1000,17.0,Speed,7000.0,2000.0,1000.0
MainBlock,5ef3832ddd7d5a0f19b24f20:TSS_RECONF_111022,GREEN,blue,incongruent,blue,1.0,672.0,6.0,,1668960235022.0,1668960235694.0,1668960229397.0,0.0,0.0,1.0,Mixed_1000,17.0,Speed,7000.0,2000.0,1000.0
MainBlock,5ef3832ddd7d5a0f19b24f20:TSS_RECONF_111022,,,,,,,,,,,,0.0,0.0,1.0,Mixed_1000,17.0,Speed,7000.0,2000.0,1000.0
MainBlock,5ef3832ddd7d5a0f19b24f20:TSS_RECONF_111022,BLUE,blue,congruent,blue,1.0,989.0,1.0,,1668960242182.0,1668960243171.0,1668960242182.0,0.0,0.0,1.0,Mixed_1000,18.0,Accuracy,5000.0,1500.0,1000.0
MainBlock,5ef3832ddd7d5a0f19b24f20:TSS_RECONF_111022,GREEN,red,incongruent,red,1.0,626.0,2.0,,1668960243686.0,1668960244312.0,1668960242182.0,0.0,0.0,1.0,Mixed_1000,18.0,Accuracy,5000.0,1500.0,1000.0
MainBlock,5ef3832ddd7d5a0f19b24f20:TSS_RECONF_111022,BLUE,blue,congruent,blue,1.0,587.0,3.0,,1668960244833.0,1668960245420.0,1668960242182.0,0.0,0.0,1.0,Mixed_1000,18.0,Accuracy,5000.0,1500.0,1000.0
MainBlock,5ef3832ddd7d5a0f19b24f20:TSS_RECONF_111022,RED,green,incongruent,green,1.0,686.0,4.0,,1668960245932.0,1668960246618.0,1668960242182.0,0.0,0.0,1.0,Mixed_1000,18.0,Accuracy,5000.0,1500.0,1000.0
MainBlock,5ef3832ddd7d5a0f19b24f20:TSS_RECONF_111022,,,,,,,,,,,,0.0,0.0,1.0,Mixed_1000,18.0,Accuracy,5000.0,1500.0,1000.0
MainBlock,5ef3832ddd7d5a0f19b24f20:TSS_RECONF_111022,YELLOW,yellow,congruent,yellow,1.0,704.0,1.0,,1668960252463.0,1668960253167.0,1668960252462.0,0.0,0.0,1.0,Mixed_1000,19.0,Speed,6000.0,1000.0,1000.0
MainBlock,5ef3832ddd7d5a0f19b24f20:TSS_RECONF_111022,GREEN,blue,incongruent,green,0.0,688.0,2.0,,1668960253676.0,1668960254364.0,1668960252462.0,0.0,0.0,1.0,Mixed_1000,19.0,Speed,6000.0,1000.0,1000.0
MainBlock,5ef3832ddd7d5a0f19b24f20:TSS_RECONF_111022,BLUE,yellow,incongruent,yellow,1.0,570.0,3.0,,1668960254872.0,1668960255442.0,1668960252462.0,0.0,0.0,1.0,Mixed_1000,19.0,Speed,6000.0,1000.0,1000.0
MainBlock,5ef3832ddd7d5a0f19b24f20:TSS_RECONF_111022,YELLOW,red,incongruent,red,1.0,590.0,4.0,,1668960255960.0,1668960256550.0,1668960252462.0,0.0,0.0,1.0,Mixed_1000,19.0,Speed,6000.0,1000.0,1000.0
MainBlock,5ef3832ddd7d5a0f19b24f20:TSS_RECONF_111022,GREEN,green,congruent,green,1.0,571.0,5.0,,1668960257063.0,1668960257634.0,1668960252462.0,0.0,0.0,1.0,Mixed_1000,19.0,Speed,6000.0,1000.0,1000.0
MainBlock,5ef3832ddd7d5a0f19b24f20:TSS_RECONF_111022,,,,,,,,,,,,0.0,0.0,1.0,Mixed_1000,19.0,Speed,6000.0,1000.0,1000.0
MainBlock,5ef3832ddd7d5a0f19b24f20:TSS_RECONF_111022,RED,green,incongruent,blue,0.0,595.0,1.0,,1668960263756.0,1668960264351.0,1668960263755.0,0.0,0.0,1.0,Mixed_1000,20.0,Accuracy,7000.0,1000.0,1000.0
MainBlock,5ef3832ddd7d5a0f19b24f20:TSS_RECONF_111022,YELLOW,yellow,congruent,yellow,1.0,682.0,2.0,,1668960264872.0,1668960265554.0,1668960263755.0,0.0,0.0,1.0,Mixed_1000,20.0,Accuracy,7000.0,1000.0,1000.0
MainBlock,5ef3832ddd7d5a0f19b24f20:TSS_RECONF_111022,GREEN,red,incongruent,red,1.0,552.0,3.0,,1668960266069.0,1668960266621.0,1668960263755.0,0.0,0.0,1.0,Mixed_1000,20.0,Accuracy,7000.0,1000.0,1000.0
MainBlock,5ef3832ddd7d5a0f19b24f20:TSS_RECONF_111022,YELLOW,green,incongruent,green,1.0,633.0,4.0,,1668960267141.0,1668960267774.0,1668960263755.0,0.0,0.0,1.0,Mixed_1000,20.0,Accuracy,7000.0,1000.0,1000.0
MainBlock,5ef3832ddd7d5a0f19b24f20:TSS_RECONF_111022,RED,red,congruent,red,1.0,566.0,5.0,,1668960268287.0,1668960268853.0,1668960263755.0,0.0,0.0,1.0,Mixed_1000,20.0,Accuracy,7000.0,1000.0,1000.0
MainBlock,5ef3832ddd7d5a0f19b24f20:TSS_RECONF_111022,YELLOW,yellow,congruent,yellow,1.0,482.0,6.0,,1668960269371.0,1668960269853.0,1668960263755.0,0.0,0.0,1.0,Mixed_1000,20.0,Accuracy,7000.0,1000.0,1000.0
MainBlock,5ef3832ddd7d5a0f19b24f20:TSS_RECONF_111022,,,,,,,,,,,,0.0,0.0,1.0,Mixed_1000,20.0,Accuracy,7000.0,1000.0,1000.0
MainBlock,5ef3832ddd7d5a0f19b24f20:TSS_RECONF_111022,GREEN,blue,incongruent,blue,1.0,665.0,1.0,,1668960276553.0,1668960277218.0,1668960276552.0,0.0,0.0,1.0,Mixed_1000,21.0,Speed,5000.0,1500.0,1000.0
MainBlock,5ef3832ddd7d5a0f19b24f20:TSS_RECONF_111022,YELLOW,yellow,congruent,yellow,1.0,562.0,2.0,,1668960277734.0,1668960278296.0,1668960276552.0,0.0,0.0,1.0,Mixed_1000,21.0,Speed,5000.0,1500.0,1000.0
MainBlock,5ef3832ddd7d5a0f19b24f20:TSS_RECONF_111022,RED,red,congruent,red,1.0,372.0,3.0,,1668960278804.0,1668960279176.0,1668960276552.0,0.0,0.0,1.0,Mixed_1000,21.0,Speed,5000.0,1500.0,1000.0
MainBlock,5ef3832ddd7d5a0f19b24f20:TSS_RECONF_111022,YELLOW,green,incongruent,green,1.0,577.0,4.0,,1668960279682.0,1668960280259.0,1668960276552.0,0.0,0.0,1.0,Mixed_1000,21.0,Speed,5000.0,1500.0,1000.0
MainBlock,5ef3832ddd7d5a0f19b24f20:TSS_RECONF_111022,BLUE,blue,congruent,blue,1.0,515.0,5.0,,1668960280768.0,1668960281283.0,1668960276552.0,0.0,0.0,1.0,Mixed_1000,21.0,Speed,5000.0,1500.0,1000.0
MainBlock,5ef3832ddd7d5a0f19b24f20:TSS_RECONF_111022,,,,,,,,,,,,0.0,0.0,1.0,Mixed_1000,21.0,Speed,5000.0,1500.0,1000.0
MainBlock,5ef3832ddd7d5a0f19b24f20:TSS_RECONF_111022,GREEN,blue,incongruent,blue,1.0,577.0,1.0,,1668960286821.0,1668960287398.0,1668960286820.0,0.0,0.0,1.0,Mixed_1000,22.0,Accuracy,6000.0,1000.0,1000.0
MainBlock,5ef3832ddd7d5a0f19b24f20:TSS_RECONF_111022,YELLOW,yellow,congruent,yellow,1.0,511.0,2.0,,1668960287910.0,1668960288421.0,1668960286820.0,0.0,0.0,1.0,Mixed_1000,22.0,Accuracy,6000.0,1000.0,1000.0
MainBlock,5ef3832ddd7d5a0f19b24f20:TSS_RECONF_111022,GREEN,red,incongruent,red,1.0,478.0,3.0,,1668960288932.0,1668960289410.0,1668960286820.0,0.0,0.0,1.0,Mixed_1000,22.0,Accuracy,6000.0,1000.0,1000.0
MainBlock,5ef3832ddd7d5a0f19b24f20:TSS_RECONF_111022,YELLOW,yellow,congruent,yellow,1.0,553.0,4.0,,1668960289921.0,1668960290474.0,1668960286820.0,0.0,0.0,1.0,Mixed_1000,22.0,Accuracy,6000.0,1000.0,1000.0
MainBlock,5ef3832ddd7d5a0f19b24f20:TSS_RECONF_111022,RED,blue,incongruent,blue,1.0,646.0,5.0,,1668960290986.0,1668960291632.0,1668960286820.0,0.0,0.0,1.0,Mixed_1000,22.0,Accuracy,6000.0,1000.0,1000.0
MainBlock,5ef3832ddd7d5a0f19b24f20:TSS_RECONF_111022,BLUE,yellow,incongruent,yellow,1.0,575.0,6.0,,1668960292150.0,1668960292725.0,1668960286820.0,0.0,0.0,1.0,Mixed_1000,22.0,Accuracy,6000.0,1000.0,1000.0
MainBlock,5ef3832ddd7d5a0f19b24f20:TSS_RECONF_111022,,,,,,,,,,,,0.0,0.0,1.0,Mixed_1000,22.0,Accuracy,6000.0,1000.0,1000.0
MainBlock,5ef3832ddd7d5a0f19b24f20:TSS_RECONF_111022,GREEN,red,incongruent,red,1.0,602.0,1.0,,1668960298099.0,1668960298701.0,1668960298099.0,0.0,0.0,1.0,Mixed_1000,23.0,Speed,5000.0,1000.0,1000.0
MainBlock,5ef3832ddd7d5a0f19b24f20:TSS_RECONF_111022,YELLOW,yellow,congruent,yellow,1.0,489.0,2.0,,1668960299215.0,1668960299704.0,1668960298099.0,0.0,0.0,1.0,Mixed_1000,23.0,Speed,5000.0,1000.0,1000.0
MainBlock,5ef3832ddd7d5a0f19b24f20:TSS_RECONF_111022,BLUE,blue,congruent,blue,1.0,552.0,3.0,,1668960300216.0,1668960300768.0,1668960298099.0,0.0,0.0,1.0,Mixed_1000,23.0,Speed,5000.0,1000.0,1000.0
MainBlock,5ef3832ddd7d5a0f19b24f20:TSS_RECONF_111022,RED,yellow,incongruent,yellow,1.0,673.0,4.0,,1668960301287.0,1668960301960.0,1668960298099.0,0.0,0.0,1.0,Mixed_1000,23.0,Speed,5000.0,1000.0,1000.0
MainBlock,5ef3832ddd7d5a0f19b24f20:TSS_RECONF_111022,,,,,,,,,,,,0.0,0.0,1.0,Mixed_1000,23.0,Speed,5000.0,1000.0,1000.0
MainBlock,5ef3832ddd7d5a0f19b24f20:TSS_RECONF_111022,BLUE,yellow,incongruent,yellow,1.0,572.0,1.0,,1668960308878.0,1668960309450.0,1668960308877.0,0.0,0.0,1.0,Mixed_1000,24.0,Accuracy,6000.0,1500.0,1000.0
MainBlock,5ef3832ddd7d5a0f19b24f20:TSS_RECONF_111022,GREEN,green,congruent,green,1.0,696.0,2.0,,1668960309965.0,1668960310661.0,1668960308877.0,0.0,0.0,1.0,Mixed_1000,24.0,Accuracy,6000.0,1500.0,1000.0
MainBlock,5ef3832ddd7d5a0f19b24f20:TSS_RECONF_111022,YELLOW,blue,incongruent,blue,1.0,957.0,3.0,,1668960311163.0,1668960312120.0,1668960308877.0,0.0,0.0,1.0,Mixed_1000,24.0,Accuracy,6000.0,1500.0,1000.0
MainBlock,5ef3832ddd7d5a0f19b24f20:TSS_RECONF_111022,BLUE,green,incongruent,green,1.0,793.0,4.0,,1668960312634.0,1668960313427.0,1668960308877.0,0.0,0.0,1.0,Mixed_1000,24.0,Accuracy,6000.0,1500.0,1000.0
MainBlock,5ef3832ddd7d5a0f19b24f20:TSS_RECONF_111022,RED,red,congruent,red,1.0,542.0,5.0,,1668960313942.0,1668960314484.0,1668960308877.0,0.0,0.0,1.0,Mixed_1000,24.0,Accuracy,6000.0,1500.0,1000.0
MainBlock,5ef3832ddd7d5a0f19b24f20:TSS_RECONF_111022,,,,,,,,,,,,0.0,0.0,1.0,Mixed_1000,24.0,Accuracy,6000.0,1500.0,1000.0
MainBlock,5ef3832ddd7d5a0f19b24f20:TSS_RECONF_111022,RED,blue,incongruent,green,0.0,659.0,1.0,,1668960320668.0,1668960321327.0,1668960320667.0,0.0,0.0,1.0,Mixed_1000,25.0,Speed,5000.0,1500.0,1000.0
MainBlock,5ef3832ddd7d5a0f19b24f20:TSS_RECONF_111022,YELLOW,yellow,congruent,yellow,1.0,487.0,2.0,,1668960321848.0,1668960322335.0,1668960320667.0,0.0,0.0,1.0,Mixed_1000,25.0,Speed,5000.0,1500.0,1000.0
MainBlock,5ef3832ddd7d5a0f19b24f20:TSS_RECONF_111022,RED,green,incongruent,blue,0.0,657.0,3.0,,1668960322855.0,1668960323512.0,1668960320667.0,0.0,0.0,1.0,Mixed_1000,25.0,Speed,5000.0,1500.0,1000.0
MainBlock,5ef3832ddd7d5a0f19b24f20:TSS_RECONF_111022,GREEN,blue,incongruent,green,0.0,630.0,4.0,,1668960324020.0,1668960324650.0,1668960320667.0,0.0,0.0,1.0,Mixed_1000,25.0,Speed,5000.0,1500.0,1000.0
MainBlock,5ef3832ddd7d5a0f19b24f20:TSS_RECONF_111022,,,,,,,,,,,,0.0,0.0,1.0,Mixed_1000,25.0,Speed,5000.0,1500.0,1000.0
MainBlock,5ef3832ddd7d5a0f19b24f20:TSS_RECONF_111022,YELLOW,blue,incongruent,blue,1.0,834.0,1.0,,1668960331459.0,1668960332293.0,1668960331459.0,0.0,0.0,1.0,Mixed_1000,26.0,Accuracy,6000.0,1500.0,1000.0
MainBlock,5ef3832ddd7d5a0f19b24f20:TSS_RECONF_111022,RED,red,congruent,red,1.0,447.0,2.0,,1668960332801.0,1668960333248.0,1668960331459.0,0.0,0.0,1.0,Mixed_1000,26.0,Accuracy,6000.0,1500.0,1000.0
MainBlock,5ef3832ddd7d5a0f19b24f20:TSS_RECONF_111022,YELLOW,blue,incongruent,blue,1.0,695.0,3.0,,1668960333759.0,1668960334454.0,1668960331459.0,0.0,0.0,1.0,Mixed_1000,26.0,Accuracy,6000.0,1500.0,1000.0
MainBlock,5ef3832ddd7d5a0f19b24f20:TSS_RECONF_111022,GREEN,green,congruent,green,1.0,429.0,4.0,,1668960334975.0,1668960335404.0,1668960331459.0,0.0,0.0,1.0,Mixed_1000,26.0,Accuracy,6000.0,1500.0,1000.0
MainBlock,5ef3832ddd7d5a0f19b24f20:TSS_RECONF_111022,RED,blue,incongruent,blue,1.0,688.0,5.0,,1668960335918.0,1668960336606.0,1668960331459.0,0.0,0.0,1.0,Mixed_1000,26.0,Accuracy,6000.0,1500.0,1000.0
MainBlock,5ef3832ddd7d5a0f19b24f20:TSS_RECONF_111022,,,,,,,,,,,,0.0,0.0,1.0,Mixed_1000,26.0,Accuracy,6000.0,1500.0,1000.0
MainBlock,5ef3832ddd7d5a0f19b24f20:TSS_RECONF_111022,GREEN,yellow,incongruent,yellow,1.0,600.0,1.0,,1668960343249.0,1668960343849.0,1668960343249.0,0.0,0.0,1.0,Mixed_1000,27.0,Speed,5000.0,1500.0,1000.0
MainBlock,5ef3832ddd7d5a0f19b24f20:TSS_RECONF_111022,RED,red,congruent,red,1.0,524.0,2.0,,1668960344367.0,1668960344891.0,1668960343249.0,0.0,0.0,1.0,Mixed_1000,27.0,Speed,5000.0,1500.0,1000.0
MainBlock,5ef3832ddd7d5a0f19b24f20:TSS_RECONF_111022,BLUE,blue,congruent,blue,1.0,543.0,3.0,,1668960345407.0,1668960345950.0,1668960343249.0,0.0,0.0,1.0,Mixed_1000,27.0,Speed,5000.0,1500.0,1000.0
MainBlock,5ef3832ddd7d5a0f19b24f20:TSS_RECONF_111022,GREEN,yellow,incongruent,yellow,1.0,474.0,4.0,,1668960346460.0,1668960346934.0,1668960343249.0,0.0,0.0,1.0,Mixed_1000,27.0,Speed,5000.0,1500.0,1000.0
MainBlock,5ef3832ddd7d5a0f19b24f20:TSS_RECONF_111022,BLUE,blue,congruent,green,0.0,564.0,5.0,,1668960347450.0,1668960348014.0,1668960343249.0,0.0,0.0,1.0,Mixed_1000,27.0,Speed,5000.0,1500.0,1000.0
MainBlock,5ef3832ddd7d5a0f19b24f20:TSS_RECONF_111022,,,,,,,,,,,,0.0,0.0,1.0,Mixed_1000,27.0,Speed,5000.0,1500.0,1000.0
MainBlock,5ef3832ddd7d5a0f19b24f20:TSS_RECONF_111022,BLUE,red,incongruent,red,1.0,412.0,1.0,,1668960353558.0,1668960353970.0,1668960353557.0,0.0,0.0,1.0,Mixed_1000,28.0,Accuracy,6000.0,1000.0,1000.0
MainBlock,5ef3832ddd7d5a0f19b24f20:TSS_RECONF_111022,YELLOW,yellow,congruent,yellow,1.0,537.0,2.0,,1668960354485.0,1668960355022.0,1668960353557.0,0.0,0.0,1.0,Mixed_1000,28.0,Accuracy,6000.0,1000.0,1000.0
MainBlock,5ef3832ddd7d5a0f19b24f20:TSS_RECONF_111022,RED,blue,incongruent,green,0.0,1075.0,3.0,,1668960355540.0,1668960356615.0,1668960353557.0,0.0,0.0,1.0,Mixed_1000,28.0,Accuracy,6000.0,1000.0,1000.0
MainBlock,5ef3832ddd7d5a0f19b24f20:TSS_RECONF_111022,YELLOW,green,incongruent,green,1.0,401.0,4.0,,1668960357124.0,1668960357525.0,1668960353557.0,0.0,0.0,1.0,Mixed_1000,28.0,Accuracy,6000.0,1000.0,1000.0
MainBlock,5ef3832ddd7d5a0f19b24f20:TSS_RECONF_111022,RED,red,congruent,red,1.0,595.0,5.0,,1668960358038.0,1668960358633.0,1668960353557.0,0.0,0.0,1.0,Mixed_1000,28.0,Accuracy,6000.0,1000.0,1000.0
MainBlock,5ef3832ddd7d5a0f19b24f20:TSS_RECONF_111022,,,,,,,,,,,,0.0,0.0,1.0,Mixed_1000,28.0,Accuracy,6000.0,1000.0,1000.0
MainBlock,5ef3832ddd7d5a0f19b24f20:TSS_RECONF_111022,RED,yellow,incongruent,yellow,1.0,580.0,1.0,,1668960365345.0,1668960365925.0,1668960365344.0,0.0,0.0,1.0,Mixed_1000,29.0,Speed,5000.0,1500.0,1000.0
MainBlock,5ef3832ddd7d5a0f19b24f20:TSS_RECONF_111022,GREEN,green,congruent,green,1.0,580.0,2.0,,1668960366428.0,1668960367008.0,1668960365344.0,0.0,0.0,1.0,Mixed_1000,29.0,Speed,5000.0,1500.0,1000.0
MainBlock,5ef3832ddd7d5a0f19b24f20:TSS_RECONF_111022,RED,red,congruent,red,1.0,442.0,3.0,,1668960367516.0,1668960367958.0,1668960365344.0,0.0,0.0,1.0,Mixed_1000,29.0,Speed,5000.0,1500.0,1000.0
MainBlock,5ef3832ddd7d5a0f19b24f20:TSS_RECONF_111022,YELLOW,blue,incongruent,blue,1.0,520.0,4.0,,1668960368476.0,1668960368996.0,1668960365344.0,0.0,0.0,1.0,Mixed_1000,29.0,Speed,5000.0,1500.0,1000.0
MainBlock,5ef3832ddd7d5a0f19b24f20:TSS_RECONF_111022,BLUE,green,incongruent,green,1.0,671.0,5.0,,1668960369512.0,1668960370183.0,1668960365344.0,0.0,0.0,1.0,Mixed_1000,29.0,Speed,5000.0,1500.0,1000.0
MainBlock,5ef3832ddd7d5a0f19b24f20:TSS_RECONF_111022,,,,,,,,,,,,0.0,0.0,1.0,Mixed_1000,29.0,Speed,5000.0,1500.0,1000.0
MainBlock,5ef3832ddd7d5a0f19b24f20:TSS_RECONF_111022,RED,red,congruent,red,1.0,517.0,1.0,,1668960376127.0,1668960376644.0,1668960376127.0,0.0,0.0,1.0,Mixed_1000,30.0,Accuracy,5000.0,1500.0,1000.0
MainBlock,5ef3832ddd7d5a0f19b24f20:TSS_RECONF_111022,GREEN,blue,incongruent,blue,1.0,1026.0,2.0,,1668960377151.0,1668960378177.0,1668960376127.0,0.0,0.0,1.0,Mixed_1000,30.0,Accuracy,5000.0,1500.0,1000.0
MainBlock,5ef3832ddd7d5a0f19b24f20:TSS_RECONF_111022,YELLOW,green,incongruent,green,1.0,387.0,3.0,,1668960378696.0,1668960379083.0,1668960376127.0,0.0,0.0,1.0,Mixed_1000,30.0,Accuracy,5000.0,1500.0,1000.0
MainBlock,5ef3832ddd7d5a0f19b24f20:TSS_RECONF_111022,BLUE,blue,congruent,blue,1.0,585.0,4.0,,1668960379591.0,1668960380176.0,1668960376127.0,0.0,0.0,1.0,Mixed_1000,30.0,Accuracy,5000.0,1500.0,1000.0
MainBlock,5ef3832ddd7d5a0f19b24f20:TSS_RECONF_111022,GREEN,green,congruent,green,1.0,426.0,5.0,,1668960380695.0,1668960381121.0,1668960376127.0,0.0,0.0,1.0,Mixed_1000,30.0,Accuracy,5000.0,1500.0,1000.0
MainBlock,5ef3832ddd7d5a0f19b24f20:TSS_RECONF_111022,,,,,,,,,,,,0.0,0.0,1.0,Mixed_1000,30.0,Accuracy,5000.0,1500.0,1000.0
MainBlock,5ef3832ddd7d5a0f19b24f20:TSS_RECONF_111022,RED,red,congruent,red,1.0,550.0,1.0,,1668960387402.0,1668960387952.0,1668960387401.0,0.0,0.0,1.0,Mixed_1000,31.0,Speed,6000.0,2000.0,1000.0
MainBlock,5ef3832ddd7d5a0f19b24f20:TSS_RECONF_111022,GREEN,yellow,incongruent,yellow,1.0,405.0,2.0,,1668960388472.0,1668960388877.0,1668960387401.0,0.0,0.0,1.0,Mixed_1000,31.0,Speed,6000.0,2000.0,1000.0
MainBlock,5ef3832ddd7d5a0f19b24f20:TSS_RECONF_111022,RED,blue,incongruent,blue,1.0,511.0,3.0,,1668960389380.0,1668960389891.0,1668960387401.0,0.0,0.0,1.0,Mixed_1000,31.0,Speed,6000.0,2000.0,1000.0
MainBlock,5ef3832ddd7d5a0f19b24f20:TSS_RECONF_111022,GREEN,green,congruent,green,1.0,370.0,4.0,,1668960390401.0,1668960390771.0,1668960387401.0,0.0,0.0,1.0,Mixed_1000,31.0,Speed,6000.0,2000.0,1000.0
MainBlock,5ef3832ddd7d5a0f19b24f20:TSS_RECONF_111022,RED,red,congruent,red,1.0,522.0,5.0,,1668960391278.0,1668960391800.0,1668960387401.0,0.0,0.0,1.0,Mixed_1000,31.0,Speed,6000.0,2000.0,1000.0
MainBlock,5ef3832ddd7d5a0f19b24f20:TSS_RECONF_111022,BLUE,green,incongruent,blue,0.0,672.0,6.0,,1668960392315.0,1668960392987.0,1668960387401.0,0.0,0.0,1.0,Mixed_1000,31.0,Speed,6000.0,2000.0,1000.0
MainBlock,5ef3832ddd7d5a0f19b24f20:TSS_RECONF_111022,,,,,,,,,,,,0.0,0.0,1.0,Mixed_1000,31.0,Speed,6000.0,2000.0,1000.0
MainBlock,5ef3832ddd7d5a0f19b24f20:TSS_RECONF_111022,YELLOW,blue,incongruent,red,0.0,711.0,1.0,,1668960399687.0,1668960400398.0,1668960399686.0,0.0,0.0,1.0,Mixed_1000,32.0,Accuracy,5000.0,2000.0,1000.0
MainBlock,5ef3832ddd7d5a0f19b24f20:TSS_RECONF_111022,GREEN,green,congruent,green,1.0,553.0,2.0,,1668960400914.0,1668960401467.0,1668960399686.0,0.0,0.0,1.0,Mixed_1000,32.0,Accuracy,5000.0,2000.0,1000.0
MainBlock,5ef3832ddd7d5a0f19b24f20:TSS_RECONF_111022,RED,red,congruent,red,1.0,626.0,3.0,,1668960401983.0,1668960402609.0,1668960399686.0,0.0,0.0,1.0,Mixed_1000,32.0,Accuracy,5000.0,2000.0,1000.0
MainBlock,5ef3832ddd7d5a0f19b24f20:TSS_RECONF_111022,GREEN,yellow,incongruent,yellow,1.0,634.0,4.0,,1668960403117.0,1668960403751.0,1668960399686.0,0.0,0.0,1.0,Mixed_1000,32.0,Accuracy,5000.0,2000.0,1000.0
MainBlock,5ef3832ddd7d5a0f19b24f20:TSS_RECONF_111022,,,,,,,,,,,,0.0,0.0,1.0,Mixed_1000,32.0,Accuracy,5000.0,2000.0,1000.0
MainBlock,5ef3832ddd7d5a0f19b24f20:TSS_RECONF_111022,RED,red,congruent,red,1.0,573.0,1.0,,1668960409980.0,1668960410553.0,1668960409979.0,0.0,0.0,1.0,Mixed_1000,33.0,Speed,7000.0,1000.0,1000.0
MainBlock,5ef3832ddd7d5a0f19b24f20:TSS_RECONF_111022,GREEN,yellow,incongruent,yellow,1.0,627.0,2.0,,1668960411064.0,1668960411691.0,1668960409979.0,0.0,0.0,1.0,Mixed_1000,33.0,Speed,7000.0,1000.0,1000.0
MainBlock,5ef3832ddd7d5a0f19b24f20:TSS_RECONF_111022,YELLOW,green,incongruent,blue,0.0,1020.0,3.0,,1668960412199.0,1668960413219.0,1668960409979.0,0.0,0.0,1.0,Mixed_1000,33.0,Speed,7000.0,1000.0,1000.0
MainBlock,5ef3832ddd7d5a0f19b24f20:TSS_RECONF_111022,BLUE,blue,congruent,green,0.0,619.0,4.0,,1668960413729.0,1668960414348.0,1668960409979.0,0.0,0.0,1.0,Mixed_1000,33.0,Speed,7000.0,1000.0,1000.0
MainBlock,5ef3832ddd7d5a0f19b24f20:TSS_RECONF_111022,GREEN,green,congruent,green,1.0,621.0,5.0,,1668960414864.0,1668960415485.0,1668960409979.0,0.0,0.0,1.0,Mixed_1000,33.0,Speed,7000.0,1000.0,1000.0
MainBlock,5ef3832ddd7d5a0f19b24f20:TSS_RECONF_111022,BLUE,yellow,incongruent,yellow,1.0,661.0,6.0,,1668960415992.0,1668960416653.0,1668960409979.0,0.0,0.0,1.0,Mixed_1000,33.0,Speed,7000.0,1000.0,1000.0
MainBlock,5ef3832ddd7d5a0f19b24f20:TSS_RECONF_111022,,,,,,,,,,,,0.0,0.0,1.0,Mixed_1000,33.0,Speed,7000.0,1000.0,1000.0
MainBlock,5ef3832ddd7d5a0f19b24f20:TSS_RECONF_111022,YELLOW,yellow,congruent,yellow,1.0,601.0,1.0,,1668960423284.0,1668960423885.0,1668960423283.0,0.0,0.0,1.0,Mixed_1000,34.0,Accuracy,7000.0,2000.0,1000.0
MainBlock,5ef3832ddd7d5a0f19b24f20:TSS_RECONF_111022,RED,blue,incongruent,blue,1.0,791.0,2.0,,1668960424401.0,1668960425192.0,1668960423283.0,0.0,0.0,1.0,Mixed_1000,34.0,Accuracy,7000.0,2000.0,1000.0
MainBlock,5ef3832ddd7d5a0f19b24f20:TSS_RECONF_111022,YELLOW,yellow,congruent,yellow,1.0,572.0,3.0,,1668960425711.0,1668960426284.0,1668960423283.0,0.0,0.0,1.0,Mixed_1000,34.0,Accuracy,7000.0,2000.0,1000.0
MainBlock,5ef3832ddd7d5a0f19b24f20:TSS_RECONF_111022,BLUE,green,incongruent,green,1.0,712.0,4.0,,1668960426798.0,1668960427511.0,1668960423283.0,0.0,0.0,1.0,Mixed_1000,34.0,Accuracy,7000.0,2000.0,1000.0
MainBlock,5ef3832ddd7d5a0f19b24f20:TSS_RECONF_111022,RED,blue,incongruent,blue,1.0,915.0,5.0,,1668960428025.0,1668960428940.0,1668960423283.0,0.0,0.0,1.0,Mixed_1000,34.0,Accuracy,7000.0,2000.0,1000.0
MainBlock,5ef3832ddd7d5a0f19b24f20:TSS_RECONF_111022,YELLOW,red,incongruent,red,1.0,754.0,6.0,,1668960429444.0,1668960430198.0,1668960423283.0,0.0,0.0,1.0,Mixed_1000,34.0,Accuracy,7000.0,2000.0,1000.0
MainBlock,5ef3832ddd7d5a0f19b24f20:TSS_RECONF_111022,,,,,,,,,,,,0.0,0.0,1.0,Mixed_1000,34.0,Accuracy,7000.0,2000.0,1000.0
MainBlock,5ef3832ddd7d5a0f19b24f20:TSS_RECONF_111022,GREEN,green,congruent,green,1.0,720.0,1.0,,1668960435572.0,1668960436292.0,1668960435571.0,0.0,0.0,1.0,Mixed_1000,35.0,Speed,7000.0,1000.0,1000.0
MainBlock,5ef3832ddd7d5a0f19b24f20:TSS_RECONF_111022,RED,yellow,incongruent,yellow,1.0,635.0,2.0,,1668960436799.0,1668960437434.0,1668960435571.0,0.0,0.0,1.0,Mixed_1000,35.0,Speed,7000.0,1000.0,1000.0
MainBlock,5ef3832ddd7d5a0f19b24f20:TSS_RECONF_111022,BLUE,blue,congruent,blue,1.0,537.0,3.0,,1668960437951.0,1668960438488.0,1668960435571.0,0.0,0.0,1.0,Mixed_1000,35.0,Speed,7000.0,1000.0,1000.0
MainBlock,5ef3832ddd7d5a0f19b24f20:TSS_RECONF_111022,GREEN,yellow,incongruent,yellow,1.0,453.0,4.0,,1668960439005.0,1668960439458.0,1668960435571.0,0.0,0.0,1.0,Mixed_1000,35.0,Speed,7000.0,1000.0,1000.0
MainBlock,5ef3832ddd7d5a0f19b24f20:TSS_RECONF_111022,RED,green,incongruent,green,1.0,727.0,5.0,,1668960439962.0,1668960440689.0,1668960435571.0,0.0,0.0,1.0,Mixed_1000,35.0,Speed,7000.0,1000.0,1000.0
MainBlock,5ef3832ddd7d5a0f19b24f20:TSS_RECONF_111022,BLUE,blue,congruent,blue,1.0,734.0,6.0,,1668960441207.0,1668960441941.0,1668960435571.0,0.0,0.0,1.0,Mixed_1000,35.0,Speed,7000.0,1000.0,1000.0
MainBlock,5ef3832ddd7d5a0f19b24f20:TSS_RECONF_111022,,,,,,,,,,,,0.0,0.0,1.0,Mixed_1000,35.0,Speed,7000.0,1000.0,1000.0
MainBlock,5ef3832ddd7d5a0f19b24f20:TSS_RECONF_111022,GREEN,green,congruent,green,1.0,957.0,1.0,,1668960448855.0,1668960449812.0,1668960448854.0,0.0,0.0,1.0,Mixed_1000,36.0,Accuracy,6000.0,2000.0,1000.0
MainBlock,5ef3832ddd7d5a0f19b24f20:TSS_RECONF_111022,YELLOW,red,incongruent,red,1.0,486.0,2.0,,1668960450320.0,1668960450806.0,1668960448854.0,0.0,0.0,1.0,Mixed_1000,36.0,Accuracy,6000.0,2000.0,1000.0
MainBlock,5ef3832ddd7d5a0f19b24f20:TSS_RECONF_111022,RED,yellow,incongruent,yellow,1.0,439.0,3.0,,1668960451327.0,1668960451766.0,1668960448854.0,0.0,0.0,1.0,Mixed_1000,36.0,Accuracy,6000.0,2000.0,1000.0
MainBlock,5ef3832ddd7d5a0f19b24f20:TSS_RECONF_111022,BLUE,blue,congruent,blue,1.0,488.0,4.0,,1668960452287.0,1668960452775.0,1668960448854.0,0.0,0.0,1.0,Mixed_1000,36.0,Accuracy,6000.0,2000.0,1000.0
MainBlock,5ef3832ddd7d5a0f19b24f20:TSS_RECONF_111022,RED,red,congruent,red,1.0,570.0,5.0,,1668960453294.0,1668960453864.0,1668960448854.0,0.0,0.0,1.0,Mixed_1000,36.0,Accuracy,6000.0,2000.0,1000.0
MainBlock,5ef3832ddd7d5a0f19b24f20:TSS_RECONF_111022,,,,,,,,,,,,0.0,0.0,1.0,Mixed_1000,36.0,Accuracy,6000.0,2000.0,1000.0
MainBlock,5ef3832ddd7d5a0f19b24f20:TSS_RECONF_111022,BLUE,green,incongruent,green,1.0,888.0,1.0,,1668960468118.0,1668960469006.0,1668960468118.0,0.0,0.0,2.0,Mixed_250,1.0,Accuracy,5000.0,1500.0,250.0
MainBlock,5ef3832ddd7d5a0f19b24f20:TSS_RECONF_111022,RED,red,congruent,red,1.0,489.0,2.0,,1668960469521.0,1668960470010.0,1668960468118.0,0.0,0.0,2.0,Mixed_250,1.0,Accuracy,5000.0,1500.0,250.0
MainBlock,5ef3832ddd7d5a0f19b24f20:TSS_RECONF_111022,GREEN,green,congruent,red,0.0,443.0,3.0,,1668960470528.0,1668960470971.0,1668960468118.0,0.0,0.0,2.0,Mixed_250,1.0,Accuracy,5000.0,1500.0,250.0
MainBlock,5ef3832ddd7d5a0f19b24f20:TSS_RECONF_111022,BLUE,red,incongruent,red,1.0,761.0,4.0,,1668960471485.0,1668960472246.0,1668960468118.0,0.0,0.0,2.0,Mixed_250,1.0,Accuracy,5000.0,1500.0,250.0
MainBlock,5ef3832ddd7d5a0f19b24f20:TSS_RECONF_111022,,,,,,,,,,,,0.0,0.0,2.0,Mixed_250,1.0,Accuracy,5000.0,1500.0,250.0
MainBlock,5ef3832ddd7d5a0f19b24f20:TSS_RECONF_111022,GREEN,blue,incongruent,blue,1.0,872.0,1.0,,1668960478670.0,1668960479542.0,1668960478670.0,0.0,0.0,2.0,Mixed_250,2.0,Speed,6000.0,2000.0,250.0
MainBlock,5ef3832ddd7d5a0f19b24f20:TSS_RECONF_111022,YELLOW,yellow,congruent,yellow,1.0,599.0,2.0,,1668960480057.0,1668960480656.0,1668960478670.0,0.0,0.0,2.0,Mixed_250,2.0,Speed,6000.0,2000.0,250.0
MainBlock,5ef3832ddd7d5a0f19b24f20:TSS_RECONF_111022,BLUE,green,incongruent,green,1.0,711.0,3.0,,1668960481172.0,1668960481883.0,1668960478670.0,0.0,0.0,2.0,Mixed_250,2.0,Speed,6000.0,2000.0,250.0
MainBlock,5ef3832ddd7d5a0f19b24f20:TSS_RECONF_111022,RED,red,congruent,red,1.0,438.0,4.0,,1668960482399.0,1668960482837.0,1668960478670.0,0.0,0.0,2.0,Mixed_250,2.0,Speed,6000.0,2000.0,250.0
MainBlock,5ef3832ddd7d5a0f19b24f20:TSS_RECONF_111022,GREEN,blue,incongruent,blue,1.0,1020.0,5.0,,1668960483340.0,1668960484360.0,1668960478670.0,0.0,0.0,2.0,Mixed_250,2.0,Speed,6000.0,2000.0,250.0
MainBlock,5ef3832ddd7d5a0f19b24f20:TSS_RECONF_111022,,,,,,,,,,,,0.0,0.0,2.0,Mixed_250,2.0,Speed,6000.0,2000.0,250.0
MainBlock,5ef3832ddd7d5a0f19b24f20:TSS_RECONF_111022,YELLOW,green,incongruent,green,1.0,813.0,1.0,,1668960489712.0,1668960490525.0,1668960489712.0,0.0,0.0,2.0,Mixed_250,3.0,Accuracy,7000.0,1500.0,250.0
MainBlock,5ef3832ddd7d5a0f19b24f20:TSS_RECONF_111022,BLUE,blue,congruent,blue,1.0,570.0,2.0,,1668960491037.0,1668960491607.0,1668960489712.0,0.0,0.0,2.0,Mixed_250,3.0,Accuracy,7000.0,1500.0,250.0
MainBlock,5ef3832ddd7d5a0f19b24f20:TSS_RECONF_111022,YELLOW,yellow,congruent,yellow,1.0,640.0,3.0,,1668960492121.0,1668960492761.0,1668960489712.0,0.0,0.0,2.0,Mixed_250,3.0,Accuracy,7000.0,1500.0,250.0
MainBlock,5ef3832ddd7d5a0f19b24f20:TSS_RECONF_111022,GREEN,blue,incongruent,green,0.0,563.0,4.0,,1668960493271.0,1668960493834.0,1668960489712.0,0.0,0.0,2.0,Mixed_250,3.0,Accuracy,7000.0,1500.0,250.0
MainBlock,5ef3832ddd7d5a0f19b24f20:TSS_RECONF_111022,BLUE,red,incongruent,red,1.0,1186.0,5.0,,1668960494339.0,1668960495525.0,1668960489712.0,0.0,0.0,2.0,Mixed_250,3.0,Accuracy,7000.0,1500.0,250.0
MainBlock,5ef3832ddd7d5a0f19b24f20:TSS_RECONF_111022,,,,,,,,,,,,0.0,0.0,2.0,Mixed_250,3.0,Accuracy,7000.0,1500.0,250.0
MainBlock,5ef3832ddd7d5a0f19b24f20:TSS_RECONF_111022,RED,blue,incongruent,blue,1.0,1139.0,1.0,,1668960501248.0,1668960502387.0,1668960501247.0,0.0,0.0,2.0,Mixed_250,4.0,Speed,5000.0,1000.0,250.0
MainBlock,5ef3832ddd7d5a0f19b24f20:TSS_RECONF_111022,YELLOW,yellow,congruent,yellow,1.0,575.0,2.0,,1668960502905.0,1668960503480.0,1668960501247.0,0.0,0.0,2.0,Mixed_250,4.0,Speed,5000.0,1000.0,250.0
MainBlock,5ef3832ddd7d5a0f19b24f20:TSS_RECONF_111022,RED,blue,incongruent,green,0.0,556.0,3.0,,1668960503992.0,1668960504548.0,1668960501247.0,0.0,0.0,2.0,Mixed_250,4.0,Speed,5000.0,1000.0,250.0
MainBlock,5ef3832ddd7d5a0f19b24f20:TSS_RECONF_111022,GREEN,green,congruent,green,1.0,526.0,4.0,,1668960505061.0,1668960505587.0,1668960501247.0,0.0,0.0,2.0,Mixed_250,4.0,Speed,5000.0,1000.0,250.0
MainBlock,5ef3832ddd7d5a0f19b24f20:TSS_RECONF_111022,,,,,,,,,,,,0.0,0.0,2.0,Mixed_250,4.0,Speed,5000.0,1000.0,250.0
MainBlock,5ef3832ddd7d5a0f19b24f20:TSS_RECONF_111022,YELLOW,blue,incongruent,blue,1.0,796.0,1.0,,1668960510786.0,1668960511582.0,1668960510786.0,0.0,0.0,2.0,Mixed_250,5.0,Accuracy,5000.0,1000.0,250.0
MainBlock,5ef3832ddd7d5a0f19b24f20:TSS_RECONF_111022,RED,red,congruent,red,1.0,467.0,2.0,,1668960512095.0,1668960512562.0,1668960510786.0,0.0,0.0,2.0,Mixed_250,5.0,Accuracy,5000.0,1000.0,250.0
MainBlock,5ef3832ddd7d5a0f19b24f20:TSS_RECONF_111022,BLUE,blue,congruent,blue,1.0,474.0,3.0,,1668960513068.0,1668960513542.0,1668960510786.0,0.0,0.0,2.0,Mixed_250,5.0,Accuracy,5000.0,1000.0,250.0
MainBlock,5ef3832ddd7d5a0f19b24f20:TSS_RECONF_111022,RED,yellow,incongruent,yellow,1.0,556.0,4.0,,1668960514059.0,1668960514615.0,1668960510786.0,0.0,0.0,2.0,Mixed_250,5.0,Accuracy,5000.0,1000.0,250.0
MainBlock,5ef3832ddd7d5a0f19b24f20:TSS_RECONF_111022,,,,,,,,,,,,0.0,0.0,2.0,Mixed_250,5.0,Accuracy,5000.0,1000.0,250.0
MainBlock,5ef3832ddd7d5a0f19b24f20:TSS_RECONF_111022,RED,red,congruent,red,1.0,583.0,1.0,,1668960520334.0,1668960520917.0,1668960520333.0,0.0,0.0,2.0,Mixed_250,6.0,Speed,7000.0,1000.0,250.0
MainBlock,5ef3832ddd7d5a0f19b24f20:TSS_RECONF_111022,GREEN,blue,incongruent,blue,1.0,747.0,2.0,,1668960521438.0,1668960522185.0,1668960520333.0,0.0,0.0,2.0,Mixed_250,6.0,Speed,7000.0,1000.0,250.0
MainBlock,5ef3832ddd7d5a0f19b24f20:TSS_RECONF_111022,YELLOW,yellow,congruent,yellow,1.0,536.0,3.0,,1668960522701.0,1668960523237.0,1668960520333.0,0.0,0.0,2.0,Mixed_250,6.0,Speed,7000.0,1000.0,250.0
MainBlock,5ef3832ddd7d5a0f19b24f20:TSS_RECONF_111022,BLUE,red,incongruent,red,1.0,606.0,4.0,,1668960523755.0,1668960524361.0,1668960520333.0,0.0,0.0,2.0,Mixed_250,6.0,Speed,7000.0,1000.0,250.0
MainBlock,5ef3832ddd7d5a0f19b24f20:TSS_RECONF_111022,YELLOW,yellow,congruent,red,0.0,523.0,5.0,,1668960524876.0,1668960525399.0,1668960520333.0,0.0,0.0,2.0,Mixed_250,6.0,Speed,7000.0,1000.0,250.0
MainBlock,5ef3832ddd7d5a0f19b24f20:TSS_RECONF_111022,BLUE,green,incongruent,green,1.0,620.0,6.0,,1668960525912.0,1668960526532.0,1668960520333.0,0.0,0.0,2.0,Mixed_250,6.0,Speed,7000.0,1000.0,250.0
MainBlock,5ef3832ddd7d5a0f19b24f20:TSS_RECONF_111022,,,,,,,,,,,,0.0,0.0,2.0,Mixed_250,6.0,Speed,7000.0,1000.0,250.0
MainBlock,5ef3832ddd7d5a0f19b24f20:TSS_RECONF_111022,RED,red,congruent,red,1.0,605.0,1.0,,1668960532863.0,1668960533468.0,1668960532862.0,0.0,0.0,2.0,Mixed_250,7.0,Accuracy,5000.0,2000.0,250.0
MainBlock,5ef3832ddd7d5a0f19b24f20:TSS_RECONF_111022,YELLOW,blue,incongruent,blue,1.0,791.0,2.0,,1668960533983.0,1668960534774.0,1668960532862.0,0.0,0.0,2.0,Mixed_250,7.0,Accuracy,5000.0,2000.0,250.0
MainBlock,5ef3832ddd7d5a0f19b24f20:TSS_RECONF_111022,RED,yellow,incongruent,yellow,1.0,516.0,3.0,,1668960535287.0,1668960535803.0,1668960532862.0,0.0,0.0,2.0,Mixed_250,7.0,Accuracy,5000.0,2000.0,250.0
MainBlock,5ef3832ddd7d5a0f19b24f20:TSS_RECONF_111022,GREEN,red,incongruent,red,1.0,574.0,4.0,,1668960536307.0,1668960536881.0,1668960532862.0,0.0,0.0,2.0,Mixed_250,7.0,Accuracy,5000.0,2000.0,250.0
MainBlock,5ef3832ddd7d5a0f19b24f20:TSS_RECONF_111022,,,,,,,,,,,,0.0,0.0,2.0,Mixed_250,7.0,Accuracy,5000.0,2000.0,250.0
MainBlock,5ef3832ddd7d5a0f19b24f20:TSS_RECONF_111022,YELLOW,yellow,congruent,yellow,1.0,619.0,1.0,,1668960543395.0,1668960544014.0,1668960543394.0,0.0,0.0,2.0,Mixed_250,8.0,Speed,5000.0,2000.0,250.0
MainBlock,5ef3832ddd7d5a0f19b24f20:TSS_RECONF_111022,RED,blue,incongruent,blue,1.0,717.0,2.0,,1668960544530.0,1668960545247.0,1668960543394.0,0.0,0.0,2.0,Mixed_250,8.0,Speed,5000.0,2000.0,250.0
MainBlock,5ef3832ddd7d5a0f19b24f20:TSS_RECONF_111022,GREEN,red,incongruent,red,1.0,755.0,3.0,,1668960545763.0,1668960546518.0,1668960543394.0,0.0,0.0,2.0,Mixed_250,8.0,Speed,5000.0,2000.0,250.0
MainBlock,5ef3832ddd7d5a0f19b24f20:TSS_RECONF_111022,RED,blue,incongruent,blue,1.0,820.0,4.0,,1668960547039.0,1668960547859.0,1668960543394.0,0.0,0.0,2.0,Mixed_250,8.0,Speed,5000.0,2000.0,250.0
MainBlock,5ef3832ddd7d5a0f19b24f20:TSS_RECONF_111022,,,,,,,,,,,,0.0,0.0,2.0,Mixed_250,8.0,Speed,5000.0,2000.0,250.0
MainBlock,5ef3832ddd7d5a0f19b24f20:TSS_RECONF_111022,BLUE,blue,congruent,blue,1.0,1957.0,1.0,,1668960553436.0,1668960555393.0,1668960553435.0,0.0,0.0,2.0,Mixed_250,9.0,Accuracy,5000.0,1500.0,250.0
MainBlock,5ef3832ddd7d5a0f19b24f20:TSS_RECONF_111022,RED,yellow,incongruent,yellow,1.0,661.0,2.0,,1668960555909.0,1668960556570.0,1668960553435.0,0.0,0.0,2.0,Mixed_250,9.0,Accuracy,5000.0,1500.0,250.0
MainBlock,5ef3832ddd7d5a0f19b24f20:TSS_RECONF_111022,YELLOW,green,incongruent,green,1.0,823.0,3.0,,1668960557087.0,1668960557910.0,1668960553435.0,0.0,0.0,2.0,Mixed_250,9.0,Accuracy,5000.0,1500.0,250.0
MainBlock,5ef3832ddd7d5a0f19b24f20:TSS_RECONF_111022,,,,,,,,,,,,0.0,0.0,2.0,Mixed_250,9.0,Accuracy,5000.0,1500.0,250.0
MainBlock,5ef3832ddd7d5a0f19b24f20:TSS_RECONF_111022,YELLOW,yellow,congruent,none,0.0,820.0,1.0,,1668960563471.0,1668960564291.0,1668960563471.0,0.0,0.0,2.0,Mixed_250,10.0,Speed,6000.0,1500.0,250.0
MainBlock,5ef3832ddd7d5a0f19b24f20:TSS_RECONF_111022,BLUE,green,incongruent,green,1.0,666.0,2.0,,1668960564798.0,1668960565464.0,1668960563471.0,0.0,0.0,2.0,Mixed_250,10.0,Speed,6000.0,1500.0,250.0
MainBlock,5ef3832ddd7d5a0f19b24f20:TSS_RECONF_111022,RED,blue,incongruent,blue,1.0,865.0,3.0,,1668960565979.0,1668960566844.0,1668960563471.0,0.0,0.0,2.0,Mixed_250,10.0,Speed,6000.0,1500.0,250.0
MainBlock,5ef3832ddd7d5a0f19b24f20:TSS_RECONF_111022,YELLOW,yellow,congruent,none,0.0,1140.0,4.0,,1668960567352.0,1668960568492.0,1668960563471.0,0.0,0.0,2.0,Mixed_250,10.0,Speed,6000.0,1500.0,250.0
MainBlock,5ef3832ddd7d5a0f19b24f20:TSS_RECONF_111022,,,,,,,,,,,,0.0,0.0,2.0,Mixed_250,10.0,Speed,6000.0,1500.0,250.0
MainBlock,5ef3832ddd7d5a0f19b24f20:TSS_RECONF_111022,GREEN,yellow,incongruent,none,0.0,1035.0,1.0,,1668960574006.0,1668960575041.0,1668960574006.0,0.0,0.0,2.0,Mixed_250,11.0,Accuracy,7000.0,1000.0,250.0
MainBlock,5ef3832ddd7d5a0f19b24f20:TSS_RECONF_111022,RED,red,congruent,yellow,0.0,684.0,2.0,,1668960575550.0,1668960576234.0,1668960574006.0,0.0,0.0,2.0,Mixed_250,11.0,Accuracy,7000.0,1000.0,250.0
MainBlock,5ef3832ddd7d5a0f19b24f20:TSS_RECONF_111022,GREEN,blue,incongruent,green,0.0,1527.0,3.0,,1668960576750.0,1668960578277.0,1668960574006.0,0.0,0.0,2.0,Mixed_250,11.0,Accuracy,7000.0,1000.0,250.0
MainBlock,5ef3832ddd7d5a0f19b24f20:TSS_RECONF_111022,BLUE,green,incongruent,green,1.0,603.0,4.0,,1668960578792.0,1668960579395.0,1668960574006.0,0.0,0.0,2.0,Mixed_250,11.0,Accuracy,7000.0,1000.0,250.0
MainBlock,5ef3832ddd7d5a0f19b24f20:TSS_RECONF_111022,YELLOW,yellow,congruent,none,0.0,536.0,5.0,,1668960579912.0,1668960580448.0,1668960574006.0,0.0,0.0,2.0,Mixed_250,11.0,Accuracy,7000.0,1000.0,250.0
MainBlock,5ef3832ddd7d5a0f19b24f20:TSS_RECONF_111022,,,,,,,,,,,,0.0,0.0,2.0,Mixed_250,11.0,Accuracy,7000.0,1000.0,250.0
MainBlock,5ef3832ddd7d5a0f19b24f20:TSS_RECONF_111022,GREEN,green,congruent,green,1.0,1055.0,1.0,,1668960586048.0,1668960587103.0,1668960586048.0,0.0,0.0,2.0,Mixed_250,12.0,Speed,7000.0,1500.0,250.0
MainBlock,5ef3832ddd7d5a0f19b24f20:TSS_RECONF_111022,RED,yellow,incongruent,yellow,1.0,472.0,2.0,,1668960587614.0,1668960588086.0,1668960586048.0,0.0,0.0,2.0,Mixed_250,12.0,Speed,7000.0,1500.0,250.0
MainBlock,5ef3832ddd7d5a0f19b24f20:TSS_RECONF_111022,YELLOW,green,incongruent,green,1.0,619.0,3.0,,1668960588605.0,1668960589224.0,1668960586048.0,0.0,0.0,2.0,Mixed_250,12.0,Speed,7000.0,1500.0,250.0
MainBlock,5ef3832ddd7d5a0f19b24f20:TSS_RECONF_111022,BLUE,blue,congruent,blue,1.0,758.0,4.0,,1668960589742.0,1668960590500.0,1668960586048.0,0.0,0.0,2.0,Mixed_250,12.0,Speed,7000.0,1500.0,250.0
MainBlock,5ef3832ddd7d5a0f19b24f20:TSS_RECONF_111022,RED,yellow,incongruent,yellow,1.0,599.0,5.0,,1668960591004.0,1668960591603.0,1668960586048.0,0.0,0.0,2.0,Mixed_250,12.0,Speed,7000.0,1500.0,250.0
MainBlock,5ef3832ddd7d5a0f19b24f20:TSS_RECONF_111022,,,,,,,,,,,,0.0,0.0,2.0,Mixed_250,12.0,Speed,7000.0,1500.0,250.0
MainBlock,5ef3832ddd7d5a0f19b24f20:TSS_RECONF_111022,BLUE,blue,congruent,green,0.0,963.0,1.0,,1668960597582.0,1668960598545.0,1668960597582.0,0.0,0.0,2.0,Mixed_250,13.0,Accuracy,6000.0,1000.0,250.0
MainBlock,5ef3832ddd7d5a0f19b24f20:TSS_RECONF_111022,RED,yellow,incongruent,yellow,1.0,1058.0,2.0,,1668960599060.0,1668960600118.0,1668960597582.0,0.0,0.0,2.0,Mixed_250,13.0,Accuracy,6000.0,1000.0,250.0
MainBlock,5ef3832ddd7d5a0f19b24f20:TSS_RECONF_111022,YELLOW,red,incongruent,red,1.0,377.0,3.0,,1668960600640.0,1668960601017.0,1668960597582.0,0.0,0.0,2.0,Mixed_250,13.0,Accuracy,6000.0,1000.0,250.0
MainBlock,5ef3832ddd7d5a0f19b24f20:TSS_RECONF_111022,GREEN,green,congruent,green,1.0,1041.0,4.0,,1668960601535.0,1668960602576.0,1668960597582.0,0.0,0.0,2.0,Mixed_250,13.0,Accuracy,6000.0,1000.0,250.0
MainBlock,5ef3832ddd7d5a0f19b24f20:TSS_RECONF_111022,,,,,,,,,,,,0.0,0.0,2.0,Mixed_250,13.0,Accuracy,6000.0,1000.0,250.0
MainBlock,5ef3832ddd7d5a0f19b24f20:TSS_RECONF_111022,BLUE,blue,congruent,green,0.0,823.0,1.0,,1668960608649.0,1668960609472.0,1668960608648.0,0.0,0.0,2.0,Mixed_250,14.0,Speed,6000.0,1500.0,250.0
MainBlock,5ef3832ddd7d5a0f19b24f20:TSS_RECONF_111022,RED,green,incongruent,green,1.0,620.0,2.0,,1668960609990.0,1668960610610.0,1668960608648.0,0.0,0.0,2.0,Mixed_250,14.0,Speed,6000.0,1500.0,250.0
MainBlock,5ef3832ddd7d5a0f19b24f20:TSS_RECONF_111022,YELLOW,red,incongruent,yellow,0.0,496.0,3.0,,1668960611123.0,1668960611619.0,1668960608648.0,0.0,0.0,2.0,Mixed_250,14.0,Speed,6000.0,1500.0,250.0
MainBlock,5ef3832ddd7d5a0f19b24f20:TSS_RECONF_111022,BLUE,blue,congruent,blue,1.0,761.0,4.0,,1668960612129.0,1668960612890.0,1668960608648.0,0.0,0.0,2.0,Mixed_250,14.0,Speed,6000.0,1500.0,250.0
MainBlock,5ef3832ddd7d5a0f19b24f20:TSS_RECONF_111022,GREEN,green,congruent,green,1.0,408.0,5.0,,1668960613407.0,1668960613815.0,1668960608648.0,0.0,0.0,2.0,Mixed_250,14.0,Speed,6000.0,1500.0,250.0
MainBlock,5ef3832ddd7d5a0f19b24f20:TSS_RECONF_111022,,,,,,,,,,,,0.0,0.0,2.0,Mixed_250,14.0,Speed,6000.0,1500.0,250.0
MainBlock,5ef3832ddd7d5a0f19b24f20:TSS_RECONF_111022,YELLOW,blue,incongruent,green,0.0,1104.0,1.0,,1668960619187.0,1668960620291.0,1668960619186.0,0.0,0.0,2.0,Mixed_250,15.0,Accuracy,7000.0,1000.0,250.0
MainBlock,5ef3832ddd7d5a0f19b24f20:TSS_RECONF_111022,GREEN,green,congruent,green,1.0,536.0,2.0,,1668960620799.0,1668960621335.0,1668960619186.0,0.0,0.0,2.0,Mixed_250,15.0,Accuracy,7000.0,1000.0,250.0
MainBlock,5ef3832ddd7d5a0f19b24f20:TSS_RECONF_111022,BLUE,yellow,incongruent,yellow,1.0,543.0,3.0,,1668960621855.0,1668960622398.0,1668960619186.0,0.0,0.0,2.0,Mixed_250,15.0,Accuracy,7000.0,1000.0,250.0
MainBlock,5ef3832ddd7d5a0f19b24f20:TSS_RECONF_111022,RED,green,incongruent,green,1.0,615.0,4.0,,1668960622921.0,1668960623536.0,1668960619186.0,0.0,0.0,2.0,Mixed_250,15.0,Accuracy,7000.0,1000.0,250.0
MainBlock,5ef3832ddd7d5a0f19b24f20:TSS_RECONF_111022,YELLOW,yellow,congruent,yellow,1.0,540.0,5.0,,1668960624050.0,1668960624590.0,1668960619186.0,0.0,0.0,2.0,Mixed_250,15.0,Accuracy,7000.0,1000.0,250.0
MainBlock,5ef3832ddd7d5a0f19b24f20:TSS_RECONF_111022,GREEN,red,incongruent,red,1.0,377.0,6.0,,1668960625103.0,1668960625480.0,1668960619186.0,0.0,0.0,2.0,Mixed_250,15.0,Accuracy,7000.0,1000.0,250.0
MainBlock,5ef3832ddd7d5a0f19b24f20:TSS_RECONF_111022,,,,,,,,,,,,0.0,0.0,2.0,Mixed_250,15.0,Accuracy,7000.0,1000.0,250.0
MainBlock,5ef3832ddd7d5a0f19b24f20:TSS_RECONF_111022,RED,red,congruent,red,1.0,522.0,1.0,,1668960631232.0,1668960631754.0,1668960631232.0,0.0,0.0,2.0,Mixed_250,16.0,Speed,5000.0,1500.0,250.0
MainBlock,5ef3832ddd7d5a0f19b24f20:TSS_RECONF_111022,GREEN,yellow,incongruent,yellow,1.0,465.0,2.0,,1668960632272.0,1668960632737.0,1668960631232.0,0.0,0.0,2.0,Mixed_250,16.0,Speed,5000.0,1500.0,250.0
MainBlock,5ef3832ddd7d5a0f19b24f20:TSS_RECONF_111022,YELLOW,red,incongruent,red,1.0,355.0,3.0,,1668960633248.0,1668960633603.0,1668960631232.0,0.0,0.0,2.0,Mixed_250,16.0,Speed,5000.0,1500.0,250.0
MainBlock,5ef3832ddd7d5a0f19b24f20:TSS_RECONF_111022,BLUE,blue,congruent,blue,1.0,1151.0,4.0,,1668960634109.0,1668960635260.0,1668960631232.0,0.0,0.0,2.0,Mixed_250,16.0,Speed,5000.0,1500.0,250.0
MainBlock,5ef3832ddd7d5a0f19b24f20:TSS_RECONF_111022,,,,,,,,,,,,0.0,0.0,2.0,Mixed_250,16.0,Speed,5000.0,1500.0,250.0
MainBlock,5ef3832ddd7d5a0f19b24f20:TSS_RECONF_111022,GREEN,green,congruent,green,1.0,578.0,1.0,,1668960641782.0,1668960642360.0,1668960641782.0,0.0,0.0,2.0,Mixed_250,17.0,Accuracy,5000.0,2000.0,250.0
MainBlock,5ef3832ddd7d5a0f19b24f20:TSS_RECONF_111022,YELLOW,blue,incongruent,blue,1.0,476.0,2.0,,1668960642867.0,1668960643343.0,1668960641782.0,0.0,0.0,2.0,Mixed_250,17.0,Accuracy,5000.0,2000.0,250.0
MainBlock,5ef3832ddd7d5a0f19b24f20:TSS_RECONF_111022,GREEN,red,incongruent,red,1.0,515.0,3.0,,1668960643857.0,1668960644372.0,1668960641782.0,0.0,0.0,2.0,Mixed_250,17.0,Accuracy,5000.0,2000.0,250.0
MainBlock,5ef3832ddd7d5a0f19b24f20:TSS_RECONF_111022,BLUE,blue,congruent,green,0.0,557.0,4.0,,1668960644879.0,1668960645436.0,1668960641782.0,0.0,0.0,2.0,Mixed_250,17.0,Accuracy,5000.0,2000.0,250.0
MainBlock,5ef3832ddd7d5a0f19b24f20:TSS_RECONF_111022,YELLOW,yellow,congruent,yellow,1.0,568.0,5.0,,1668960645951.0,1668960646519.0,1668960641782.0,0.0,0.0,2.0,Mixed_250,17.0,Accuracy,5000.0,2000.0,250.0
MainBlock,5ef3832ddd7d5a0f19b24f20:TSS_RECONF_111022,,,,,,,,,,,,0.0,0.0,2.0,Mixed_250,17.0,Accuracy,5000.0,2000.0,250.0
MainBlock,5ef3832ddd7d5a0f19b24f20:TSS_RECONF_111022,GREEN,red,incongruent,red,1.0,601.0,1.0,,1668960652336.0,1668960652937.0,1668960652336.0,0.0,0.0,2.0,Mixed_250,18.0,Speed,5000.0,2000.0,250.0
MainBlock,5ef3832ddd7d5a0f19b24f20:TSS_RECONF_111022,YELLOW,yellow,congruent,yellow,1.0,559.0,2.0,,1668960653455.0,1668960654014.0,1668960652336.0,0.0,0.0,2.0,Mixed_250,18.0,Speed,5000.0,2000.0,250.0
MainBlock,5ef3832ddd7d5a0f19b24f20:TSS_RECONF_111022,GREEN,green,congruent,green,1.0,696.0,3.0,,1668960654525.0,1668960655221.0,1668960652336.0,0.0,0.0,2.0,Mixed_250,18.0,Speed,5000.0,2000.0,250.0
MainBlock,5ef3832ddd7d5a0f19b24f20:TSS_RECONF_111022,YELLOW,blue,incongruent,blue,1.0,864.0,4.0,,1668960655737.0,1668960656601.0,1668960652336.0,0.0,0.0,2.0,Mixed_250,18.0,Speed,5000.0,2000.0,250.0
MainBlock,5ef3832ddd7d5a0f19b24f20:TSS_RECONF_111022,,,,,,,,,,,,0.0,0.0,2.0,Mixed_250,18.0,Speed,5000.0,2000.0,250.0
MainBlock,5ef3832ddd7d5a0f19b24f20:TSS_RECONF_111022,YELLOW,blue,incongruent,blue,1.0,846.0,1.0,,1668960661879.0,1668960662725.0,1668960661879.0,0.0,0.0,2.0,Mixed_250,19.0,Accuracy,7000.0,1000.0,250.0
MainBlock,5ef3832ddd7d5a0f19b24f20:TSS_RECONF_111022,GREEN,green,congruent,green,1.0,482.0,2.0,,1668960663238.0,1668960663720.0,1668960661879.0,0.0,0.0,2.0,Mixed_250,19.0,Accuracy,7000.0,1000.0,250.0
MainBlock,5ef3832ddd7d5a0f19b24f20:TSS_RECONF_111022,BLUE,yellow,incongruent,yellow,1.0,572.0,3.0,,1668960664231.0,1668960664803.0,1668960661879.0,0.0,0.0,2.0,Mixed_250,19.0,Accuracy,7000.0,1000.0,250.0
MainBlock,5ef3832ddd7d5a0f19b24f20:TSS_RECONF_111022,GREEN,blue,incongruent,green,0.0,598.0,4.0,,1668960665318.0,1668960665916.0,1668960661879.0,0.0,0.0,2.0,Mixed_250,19.0,Accuracy,7000.0,1000.0,250.0
MainBlock,5ef3832ddd7d5a0f19b24f20:TSS_RECONF_111022,YELLOW,yellow,congruent,yellow,1.0,617.0,5.0,,1668960666422.0,1668960667039.0,1668960661879.0,0.0,0.0,2.0,Mixed_250,19.0,Accuracy,7000.0,1000.0,250.0
MainBlock,5ef3832ddd7d5a0f19b24f20:TSS_RECONF_111022,RED,red,congruent,red,1.0,365.0,6.0,,1668960667555.0,1668960667920.0,1668960661879.0,0.0,0.0,2.0,Mixed_250,19.0,Accuracy,7000.0,1000.0,250.0
MainBlock,5ef3832ddd7d5a0f19b24f20:TSS_RECONF_111022,,,,,,,,,,,,0.0,0.0,2.0,Mixed_250,19.0,Accuracy,7000.0,1000.0,250.0
MainBlock,5ef3832ddd7d5a0f19b24f20:TSS_RECONF_111022,YELLOW,yellow,congruent,yellow,1.0,699.0,1.0,,1668960673415.0,1668960674114.0,1668960673415.0,0.0,0.0,2.0,Mixed_250,20.0,Speed,6000.0,1000.0,250.0
MainBlock,5ef3832ddd7d5a0f19b24f20:TSS_RECONF_111022,BLUE,red,incongruent,red,1.0,675.0,2.0,,1668960674625.0,1668960675300.0,1668960673415.0,0.0,0.0,2.0,Mixed_250,20.0,Speed,6000.0,1000.0,250.0
MainBlock,5ef3832ddd7d5a0f19b24f20:TSS_RECONF_111022,GREEN,yellow,incongruent,yellow,1.0,528.0,3.0,,1668960675802.0,1668960676330.0,1668960673415.0,0.0,0.0,2.0,Mixed_250,20.0,Speed,6000.0,1000.0,250.0
MainBlock,5ef3832ddd7d5a0f19b24f20:TSS_RECONF_111022,BLUE,green,incongruent,green,1.0,774.0,4.0,,1668960676837.0,1668960677611.0,1668960673415.0,0.0,0.0,2.0,Mixed_250,20.0,Speed,6000.0,1000.0,250.0
MainBlock,5ef3832ddd7d5a0f19b24f20:TSS_RECONF_111022,YELLOW,yellow,congruent,yellow,1.0,508.0,5.0,,1668960678117.0,1668960678625.0,1668960673415.0,0.0,0.0,2.0,Mixed_250,20.0,Speed,6000.0,1000.0,250.0
MainBlock,5ef3832ddd7d5a0f19b24f20:TSS_RECONF_111022,,,,,,,,,,,,0.0,0.0,2.0,Mixed_250,20.0,Speed,6000.0,1000.0,250.0
MainBlock,5ef3832ddd7d5a0f19b24f20:TSS_RECONF_111022,YELLOW,yellow,congruent,yellow,1.0,802.0,1.0,,1668960683952.0,1668960684754.0,1668960683952.0,0.0,0.0,2.0,Mixed_250,21.0,Accuracy,6000.0,1000.0,250.0
MainBlock,5ef3832ddd7d5a0f19b24f20:TSS_RECONF_111022,GREEN,red,incongruent,red,1.0,359.0,2.0,,1668960685260.0,1668960685619.0,1668960683952.0,0.0,0.0,2.0,Mixed_250,21.0,Accuracy,6000.0,1000.0,250.0
MainBlock,5ef3832ddd7d5a0f19b24f20:TSS_RECONF_111022,BLUE,blue,congruent,blue,1.0,531.0,3.0,,1668960686137.0,1668960686668.0,1668960683952.0,0.0,0.0,2.0,Mixed_250,21.0,Accuracy,6000.0,1000.0,250.0
MainBlock,5ef3832ddd7d5a0f19b24f20:TSS_RECONF_111022,YELLOW,red,incongruent,yellow,0.0,617.0,4.0,,1668960687174.0,1668960687791.0,1668960683952.0,0.0,0.0,2.0,Mixed_250,21.0,Accuracy,6000.0,1000.0,250.0
MainBlock,5ef3832ddd7d5a0f19b24f20:TSS_RECONF_111022,BLUE,blue,congruent,blue,1.0,944.0,5.0,,1668960688311.0,1668960689255.0,1668960683952.0,0.0,0.0,2.0,Mixed_250,21.0,Accuracy,6000.0,1000.0,250.0
MainBlock,5ef3832ddd7d5a0f19b24f20:TSS_RECONF_111022,,,,,,,,,,,,0.0,0.0,2.0,Mixed_250,21.0,Accuracy,6000.0,1000.0,250.0
MainBlock,5ef3832ddd7d5a0f19b24f20:TSS_RECONF_111022,RED,yellow,incongruent,yellow,1.0,631.0,1.0,,1668960695476.0,1668960696107.0,1668960695475.0,0.0,0.0,2.0,Mixed_250,22.0,Speed,7000.0,2000.0,250.0
MainBlock,5ef3832ddd7d5a0f19b24f20:TSS_RECONF_111022,GREEN,green,congruent,green,1.0,485.0,2.0,,1668960696611.0,1668960697096.0,1668960695475.0,0.0,0.0,2.0,Mixed_250,22.0,Speed,7000.0,2000.0,250.0
MainBlock,5ef3832ddd7d5a0f19b24f20:TSS_RECONF_111022,BLUE,blue,congruent,blue,1.0,502.0,3.0,,1668960697603.0,1668960698105.0,1668960695475.0,0.0,0.0,2.0,Mixed_250,22.0,Speed,7000.0,2000.0,250.0
MainBlock,5ef3832ddd7d5a0f19b24f20:TSS_RECONF_111022,GREEN,red,incongruent,red,1.0,541.0,4.0,,1668960698623.0,1668960699164.0,1668960695475.0,0.0,0.0,2.0,Mixed_250,22.0,Speed,7000.0,2000.0,250.0
MainBlock,5ef3832ddd7d5a0f19b24f20:TSS_RECONF_111022,BLUE,yellow,incongruent,yellow,1.0,666.0,5.0,,1668960699675.0,1668960700341.0,1668960695475.0,0.0,0.0,2.0,Mixed_250,22.0,Speed,7000.0,2000.0,250.0
MainBlock,5ef3832ddd7d5a0f19b24f20:TSS_RECONF_111022,GREEN,green,congruent,green,1.0,601.0,6.0,,1668960700858.0,1668960701459.0,1668960695475.0,0.0,0.0,2.0,Mixed_250,22.0,Speed,7000.0,2000.0,250.0
MainBlock,5ef3832ddd7d5a0f19b24f20:TSS_RECONF_111022,,,,,,,,,,,,0.0,0.0,2.0,Mixed_250,22.0,Speed,7000.0,2000.0,250.0
MainBlock,5ef3832ddd7d5a0f19b24f20:TSS_RECONF_111022,YELLOW,yellow,congruent,yellow,1.0,546.0,1.0,,1668960707508.0,1668960708054.0,1668960707507.0,0.0,0.0,2.0,Mixed_250,23.0,Accuracy,7000.0,1500.0,250.0
MainBlock,5ef3832ddd7d5a0f19b24f20:TSS_RECONF_111022,BLUE,green,incongruent,green,1.0,1419.0,2.0,,1668960708563.0,1668960709983.0,1668960707507.0,0.0,0.0,2.0,Mixed_250,23.0,Accuracy,7000.0,1500.0,250.0
MainBlock,5ef3832ddd7d5a0f19b24f20:TSS_RECONF_111022,RED,yellow,incongruent,yellow,1.0,620.0,3.0,,1668960710496.0,1668960711116.0,1668960707507.0,0.0,0.0,2.0,Mixed_250,23.0,Accuracy,7000.0,1500.0,250.0
MainBlock,5ef3832ddd7d5a0f19b24f20:TSS_RECONF_111022,YELLOW,blue,incongruent,blue,1.0,592.0,4.0,,1668960711631.0,1668960712223.0,1668960707507.0,0.0,0.0,2.0,Mixed_250,23.0,Accuracy,7000.0,1500.0,250.0
MainBlock,5ef3832ddd7d5a0f19b24f20:TSS_RECONF_111022,GREEN,green,congruent,green,1.0,515.0,5.0,,1668960712732.0,1668960713247.0,1668960707507.0,0.0,0.0,2.0,Mixed_250,23.0,Accuracy,7000.0,1500.0,250.0
MainBlock,5ef3832ddd7d5a0f19b24f20:TSS_RECONF_111022,RED,red,congruent,red,1.0,571.0,6.0,,1668960713755.0,1668960714326.0,1668960707507.0,0.0,0.0,2.0,Mixed_250,23.0,Accuracy,7000.0,1500.0,250.0
MainBlock,5ef3832ddd7d5a0f19b24f20:TSS_RECONF_111022,,,,,,,,,,,,0.0,0.0,2.0,Mixed_250,23.0,Accuracy,7000.0,1500.0,250.0
MainBlock,5ef3832ddd7d5a0f19b24f20:TSS_RECONF_111022,YELLOW,green,incongruent,green,1.0,935.0,1.0,,1668960719550.0,1668960720485.0,1668960719549.0,0.0,0.0,2.0,Mixed_250,24.0,Speed,5000.0,1500.0,250.0
MainBlock,5ef3832ddd7d5a0f19b24f20:TSS_RECONF_111022,BLUE,blue,congruent,blue,1.0,608.0,2.0,,1668960720990.0,1668960721598.0,1668960719549.0,0.0,0.0,2.0,Mixed_250,24.0,Speed,5000.0,1500.0,250.0
MainBlock,5ef3832ddd7d5a0f19b24f20:TSS_RECONF_111022,YELLOW,yellow,congruent,yellow,1.0,532.0,3.0,,1668960722119.0,1668960722651.0,1668960719549.0,0.0,0.0,2.0,Mixed_250,24.0,Speed,5000.0,1500.0,250.0
MainBlock,5ef3832ddd7d5a0f19b24f20:TSS_RECONF_111022,BLUE,green,incongruent,blue,0.0,881.0,4.0,,1668960723166.0,1668960724047.0,1668960719549.0,0.0,0.0,2.0,Mixed_250,24.0,Speed,5000.0,1500.0,250.0
MainBlock,5ef3832ddd7d5a0f19b24f20:TSS_RECONF_111022,,,,,,,,,,,,0.0,0.0,2.0,Mixed_250,24.0,Speed,5000.0,1500.0,250.0
MainBlock,5ef3832ddd7d5a0f19b24f20:TSS_RECONF_111022,YELLOW,yellow,congruent,yellow,1.0,598.0,1.0,,1668960730102.0,1668960730700.0,1668960730102.0,0.0,0.0,2.0,Mixed_250,25.0,Accuracy,5000.0,2000.0,250.0
MainBlock,5ef3832ddd7d5a0f19b24f20:TSS_RECONF_111022,GREEN,blue,incongruent,blue,1.0,650.0,2.0,,1668960731202.0,1668960731852.0,1668960730102.0,0.0,0.0,2.0,Mixed_250,25.0,Accuracy,5000.0,2000.0,250.0
MainBlock,5ef3832ddd7d5a0f19b24f20:TSS_RECONF_111022,RED,red,congruent,red,1.0,495.0,3.0,,1668960732368.0,1668960732863.0,1668960730102.0,0.0,0.0,2.0,Mixed_250,25.0,Accuracy,5000.0,2000.0,250.0
MainBlock,5ef3832ddd7d5a0f19b24f20:TSS_RECONF_111022,GREEN,blue,incongruent,blue,1.0,743.0,4.0,,1668960733375.0,1668960734118.0,1668960730102.0,0.0,0.0,2.0,Mixed_250,25.0,Accuracy,5000.0,2000.0,250.0
MainBlock,5ef3832ddd7d5a0f19b24f20:TSS_RECONF_111022,,,,,,,,,,,,0.0,0.0,2.0,Mixed_250,25.0,Accuracy,5000.0,2000.0,250.0
MainBlock,5ef3832ddd7d5a0f19b24f20:TSS_RECONF_111022,BLUE,red,incongruent,red,1.0,580.0,1.0,,1668960739647.0,1668960740227.0,1668960739646.0,0.0,0.0,2.0,Mixed_250,26.0,Speed,7000.0,1000.0,250.0
MainBlock,5ef3832ddd7d5a0f19b24f20:TSS_RECONF_111022,GREEN,green,congruent,green,1.0,596.0,2.0,,1668960740735.0,1668960741331.0,1668960739646.0,0.0,0.0,2.0,Mixed_250,26.0,Speed,7000.0,1000.0,250.0
MainBlock,5ef3832ddd7d5a0f19b24f20:TSS_RECONF_111022,BLUE,blue,congruent,blue,1.0,453.0,3.0,,1668960741837.0,1668960742290.0,1668960739646.0,0.0,0.0,2.0,Mixed_250,26.0,Speed,7000.0,1000.0,250.0
MainBlock,5ef3832ddd7d5a0f19b24f20:TSS_RECONF_111022,GREEN,red,incongruent,red,1.0,444.0,4.0,,1668960742796.0,1668960743240.0,1668960739646.0,0.0,0.0,2.0,Mixed_250,26.0,Speed,7000.0,1000.0,250.0
MainBlock,5ef3832ddd7d5a0f19b24f20:TSS_RECONF_111022,BLUE,blue,congruent,blue,1.0,740.0,5.0,,1668960743756.0,1668960744496.0,1668960739646.0,0.0,0.0,2.0,Mixed_250,26.0,Speed,7000.0,1000.0,250.0
MainBlock,5ef3832ddd7d5a0f19b24f20:TSS_RECONF_111022,RED,green,incongruent,green,1.0,630.0,6.0,,1668960745009.0,1668960745639.0,1668960739646.0,0.0,0.0,2.0,Mixed_250,26.0,Speed,7000.0,1000.0,250.0
MainBlock,5ef3832ddd7d5a0f19b24f20:TSS_RECONF_111022,,,,,,,,,,,,0.0,0.0,2.0,Mixed_250,26.0,Speed,7000.0,1000.0,250.0
MainBlock,5ef3832ddd7d5a0f19b24f20:TSS_RECONF_111022,RED,red,congruent,red,1.0,543.0,1.0,,1668960752182.0,1668960752725.0,1668960752182.0,0.0,0.0,2.0,Mixed_250,27.0,Accuracy,6000.0,2000.0,250.0
MainBlock,5ef3832ddd7d5a0f19b24f20:TSS_RECONF_111022,GREEN,blue,incongruent,green,0.0,713.0,2.0,,1668960753237.0,1668960753950.0,1668960752182.0,0.0,0.0,2.0,Mixed_250,27.0,Accuracy,6000.0,2000.0,250.0
MainBlock,5ef3832ddd7d5a0f19b24f20:TSS_RECONF_111022,RED,green,incongruent,green,1.0,534.0,3.0,,1668960754464.0,1668960754998.0,1668960752182.0,0.0,0.0,2.0,Mixed_250,27.0,Accuracy,6000.0,2000.0,250.0
MainBlock,5ef3832ddd7d5a0f19b24f20:TSS_RECONF_111022,YELLOW,yellow,congruent,yellow,1.0,502.0,4.0,,1668960755520.0,1668960756022.0,1668960752182.0,0.0,0.0,2.0,Mixed_250,27.0,Accuracy,6000.0,2000.0,250.0
MainBlock,5ef3832ddd7d5a0f19b24f20:TSS_RECONF_111022,RED,green,incongruent,green,1.0,780.0,5.0,,1668960756544.0,1668960757324.0,1668960752182.0,0.0,0.0,2.0,Mixed_250,27.0,Accuracy,6000.0,2000.0,250.0
MainBlock,5ef3832ddd7d5a0f19b24f20:TSS_RECONF_111022,,,,,,,,,,,,0.0,0.0,2.0,Mixed_250,27.0,Accuracy,6000.0,2000.0,250.0
MainBlock,5ef3832ddd7d5a0f19b24f20:TSS_RECONF_111022,YELLOW,yellow,congruent,yellow,1.0,757.0,1.0,,1668960762696.0,1668960763453.0,1668960762696.0,0.0,0.0,2.0,Mixed_250,28.0,Speed,7000.0,1000.0,250.0
MainBlock,5ef3832ddd7d5a0f19b24f20:TSS_RECONF_111022,BLUE,green,incongruent,green,1.0,562.0,2.0,,1668960763960.0,1668960764522.0,1668960762696.0,0.0,0.0,2.0,Mixed_250,28.0,Speed,7000.0,1000.0,250.0
MainBlock,5ef3832ddd7d5a0f19b24f20:TSS_RECONF_111022,YELLOW,yellow,congruent,yellow,1.0,690.0,3.0,,1668960765028.0,1668960765718.0,1668960762696.0,0.0,0.0,2.0,Mixed_250,28.0,Speed,7000.0,1000.0,250.0
MainBlock,5ef3832ddd7d5a0f19b24f20:TSS_RECONF_111022,RED,green,incongruent,green,1.0,651.0,4.0,,1668960766241.0,1668960766892.0,1668960762696.0,0.0,0.0,2.0,Mixed_250,28.0,Speed,7000.0,1000.0,250.0
MainBlock,5ef3832ddd7d5a0f19b24f20:TSS_RECONF_111022,GREEN,red,incongruent,red,1.0,434.0,5.0,,1668960767406.0,1668960767840.0,1668960762696.0,0.0,0.0,2.0,Mixed_250,28.0,Speed,7000.0,1000.0,250.0
MainBlock,5ef3832ddd7d5a0f19b24f20:TSS_RECONF_111022,RED,yellow,incongruent,yellow,1.0,544.0,6.0,,1668960768350.0,1668960768894.0,1668960762696.0,0.0,0.0,2.0,Mixed_250,28.0,Speed,7000.0,1000.0,250.0
MainBlock,5ef3832ddd7d5a0f19b24f20:TSS_RECONF_111022,,,,,,,,,,,,0.0,0.0,2.0,Mixed_250,28.0,Speed,7000.0,1000.0,250.0
MainBlock,5ef3832ddd7d5a0f19b24f20:TSS_RECONF_111022,YELLOW,green,incongruent,blue,0.0,657.0,1.0,,1668960774239.0,1668960774896.0,1668960774238.0,0.0,0.0,2.0,Mixed_250,29.0,Accuracy,6000.0,1000.0,250.0
MainBlock,5ef3832ddd7d5a0f19b24f20:TSS_RECONF_111022,BLUE,blue,congruent,green,0.0,1018.0,2.0,,1668960775406.0,1668960776424.0,1668960774238.0,0.0,0.0,2.0,Mixed_250,29.0,Accuracy,6000.0,1000.0,250.0
MainBlock,5ef3832ddd7d5a0f19b24f20:TSS_RECONF_111022,YELLOW,yellow,congruent,yellow,1.0,501.0,3.0,,1668960776937.0,1668960777438.0,1668960774238.0,0.0,0.0,2.0,Mixed_250,29.0,Accuracy,6000.0,1000.0,250.0
MainBlock,5ef3832ddd7d5a0f19b24f20:TSS_RECONF_111022,BLUE,red,incongruent,red,1.0,532.0,4.0,,1668960777959.0,1668960778491.0,1668960774238.0,0.0,0.0,2.0,Mixed_250,29.0,Accuracy,6000.0,1000.0,250.0
MainBlock,5ef3832ddd7d5a0f19b24f20:TSS_RECONF_111022,YELLOW,yellow,congruent,green,0.0,496.0,5.0,,1668960778999.0,1668960779495.0,1668960774238.0,0.0,0.0,2.0,Mixed_250,29.0,Accuracy,6000.0,1000.0,250.0
MainBlock,5ef3832ddd7d5a0f19b24f20:TSS_RECONF_111022,,,,,,,,,,,,0.0,0.0,2.0,Mixed_250,29.0,Accuracy,6000.0,1000.0,250.0
MainBlock,5ef3832ddd7d5a0f19b24f20:TSS_RECONF_111022,GREEN,yellow,incongruent,yellow,1.0,583.0,1.0,,1668960785775.0,1668960786358.0,1668960785774.0,0.0,0.0,2.0,Mixed_250,30.0,Speed,6000.0,2000.0,250.0
MainBlock,5ef3832ddd7d5a0f19b24f20:TSS_RECONF_111022,BLUE,blue,congruent,blue,1.0,491.0,2.0,,1668960786875.0,1668960787366.0,1668960785774.0,0.0,0.0,2.0,Mixed_250,30.0,Speed,6000.0,2000.0,250.0
MainBlock,5ef3832ddd7d5a0f19b24f20:TSS_RECONF_111022,GREEN,green,congruent,green,1.0,399.0,3.0,,1668960787878.0,1668960788277.0,1668960785774.0,0.0,0.0,2.0,Mixed_250,30.0,Speed,6000.0,2000.0,250.0
MainBlock,5ef3832ddd7d5a0f19b24f20:TSS_RECONF_111022,YELLOW,red,incongruent,red,1.0,505.0,4.0,,1668960788790.0,1668960789295.0,1668960785774.0,0.0,0.0,2.0,Mixed_250,30.0,Speed,6000.0,2000.0,250.0
MainBlock,5ef3832ddd7d5a0f19b24f20:TSS_RECONF_111022,BLUE,green,incongruent,green,1.0,842.0,5.0,,1668960789813.0,1668960790655.0,1668960785774.0,0.0,0.0,2.0,Mixed_250,30.0,Speed,6000.0,2000.0,250.0
MainBlock,5ef3832ddd7d5a0f19b24f20:TSS_RECONF_111022,RED,yellow,incongruent,yellow,1.0,589.0,6.0,,1668960791169.0,1668960791758.0,1668960785774.0,0.0,0.0,2.0,Mixed_250,30.0,Speed,6000.0,2000.0,250.0
MainBlock,5ef3832ddd7d5a0f19b24f20:TSS_RECONF_111022,,,,,,,,,,,,0.0,0.0,2.0,Mixed_250,30.0,Speed,6000.0,2000.0,250.0
MainBlock,5ef3832ddd7d5a0f19b24f20:TSS_RECONF_111022,RED,red,congruent,red,1.0,494.0,1.0,,1668960796800.0,1668960797294.0,1668960796799.0,0.0,0.0,2.0,Mixed_250,31.0,Accuracy,6000.0,1500.0,250.0
MainBlock,5ef3832ddd7d5a0f19b24f20:TSS_RECONF_111022,BLUE,yellow,incongruent,yellow,1.0,367.0,2.0,,1668960797808.0,1668960798175.0,1668960796799.0,0.0,0.0,2.0,Mixed_250,31.0,Accuracy,6000.0,1500.0,250.0
MainBlock,5ef3832ddd7d5a0f19b24f20:TSS_RECONF_111022,RED,blue,incongruent,green,0.0,619.0,3.0,,1668960798688.0,1668960799307.0,1668960796799.0,0.0,0.0,2.0,Mixed_250,31.0,Accuracy,6000.0,1500.0,250.0
MainBlock,5ef3832ddd7d5a0f19b24f20:TSS_RECONF_111022,YELLOW,yellow,congruent,yellow,1.0,526.0,4.0,,1668960799820.0,1668960800346.0,1668960796799.0,0.0,0.0,2.0,Mixed_250,31.0,Accuracy,6000.0,1500.0,250.0
MainBlock,5ef3832ddd7d5a0f19b24f20:TSS_RECONF_111022,BLUE,blue,congruent,blue,1.0,614.0,5.0,,1668960800860.0,1668960801474.0,1668960796799.0,0.0,0.0,2.0,Mixed_250,31.0,Accuracy,6000.0,1500.0,250.0
MainBlock,5ef3832ddd7d5a0f19b24f20:TSS_RECONF_111022,GREEN,red,incongruent,red,1.0,555.0,6.0,,1668960801992.0,1668960802547.0,1668960796799.0,0.0,0.0,2.0,Mixed_250,31.0,Accuracy,6000.0,1500.0,250.0
MainBlock,5ef3832ddd7d5a0f19b24f20:TSS_RECONF_111022,,,,,,,,,,,,0.0,0.0,2.0,Mixed_250,31.0,Accuracy,6000.0,1500.0,250.0
MainBlock,5ef3832ddd7d5a0f19b24f20:TSS_RECONF_111022,RED,red,congruent,red,1.0,555.0,1.0,,1668960808334.0,1668960808889.0,1668960808334.0,0.0,0.0,2.0,Mixed_250,32.0,Speed,7000.0,2000.0,250.0
MainBlock,5ef3832ddd7d5a0f19b24f20:TSS_RECONF_111022,YELLOW,green,incongruent,green,1.0,564.0,2.0,,1668960809403.0,1668960809967.0,1668960808334.0,0.0,0.0,2.0,Mixed_250,32.0,Speed,7000.0,2000.0,250.0
MainBlock,5ef3832ddd7d5a0f19b24f20:TSS_RECONF_111022,BLUE,blue,congruent,blue,1.0,536.0,3.0,,1668960810490.0,1668960811026.0,1668960808334.0,0.0,0.0,2.0,Mixed_250,32.0,Speed,7000.0,2000.0,250.0
MainBlock,5ef3832ddd7d5a0f19b24f20:TSS_RECONF_111022,GREEN,yellow,incongruent,yellow,1.0,603.0,4.0,,1668960811545.0,1668960812148.0,1668960808334.0,0.0,0.0,2.0,Mixed_250,32.0,Speed,7000.0,2000.0,250.0
MainBlock,5ef3832ddd7d5a0f19b24f20:TSS_RECONF_111022,YELLOW,blue,incongruent,green,0.0,651.0,5.0,,1668960812665.0,1668960813316.0,1668960808334.0,0.0,0.0,2.0,Mixed_250,32.0,Speed,7000.0,2000.0,250.0
MainBlock,5ef3832ddd7d5a0f19b24f20:TSS_RECONF_111022,GREEN,red,incongruent,red,1.0,696.0,6.0,,1668960813832.0,1668960814528.0,1668960808334.0,0.0,0.0,2.0,Mixed_250,32.0,Speed,7000.0,2000.0,250.0
MainBlock,5ef3832ddd7d5a0f19b24f20:TSS_RECONF_111022,,,,,,,,,,,,0.0,0.0,2.0,Mixed_250,32.0,Speed,7000.0,2000.0,250.0
MainBlock,5ef3832ddd7d5a0f19b24f20:TSS_RECONF_111022,RED,red,congruent,red,1.0,547.0,1.0,,1668960820358.0,1668960820905.0,1668960820358.0,0.0,0.0,2.0,Mixed_250,33.0,Accuracy,6000.0,1500.0,250.0
MainBlock,5ef3832ddd7d5a0f19b24f20:TSS_RECONF_111022,BLUE,green,incongruent,green,1.0,989.0,2.0,,1668960821424.0,1668960822413.0,1668960820358.0,0.0,0.0,2.0,Mixed_250,33.0,Accuracy,6000.0,1500.0,250.0
MainBlock,5ef3832ddd7d5a0f19b24f20:TSS_RECONF_111022,YELLOW,yellow,congruent,yellow,1.0,559.0,3.0,,1668960822927.0,1668960823486.0,1668960820358.0,0.0,0.0,2.0,Mixed_250,33.0,Accuracy,6000.0,1500.0,250.0
MainBlock,5ef3832ddd7d5a0f19b24f20:TSS_RECONF_111022,GREEN,blue,incongruent,blue,1.0,713.0,4.0,,1668960824000.0,1668960824713.0,1668960820358.0,0.0,0.0,2.0,Mixed_250,33.0,Accuracy,6000.0,1500.0,250.0
MainBlock,5ef3832ddd7d5a0f19b24f20:TSS_RECONF_111022,RED,red,congruent,red,1.0,523.0,5.0,,1668960825229.0,1668960825752.0,1668960820358.0,0.0,0.0,2.0,Mixed_250,33.0,Accuracy,6000.0,1500.0,250.0
MainBlock,5ef3832ddd7d5a0f19b24f20:TSS_RECONF_111022,,,,,,,,,,,,0.0,0.0,2.0,Mixed_250,33.0,Accuracy,6000.0,1500.0,250.0
MainBlock,5ef3832ddd7d5a0f19b24f20:TSS_RECONF_111022,BLUE,yellow,incongruent,yellow,1.0,550.0,1.0,,1668960831391.0,1668960831941.0,1668960831391.0,0.0,0.0,2.0,Mixed_250,34.0,Speed,5000.0,1500.0,250.0
MainBlock,5ef3832ddd7d5a0f19b24f20:TSS_RECONF_111022,GREEN,green,congruent,green,1.0,542.0,2.0,,1668960832448.0,1668960832990.0,1668960831391.0,0.0,0.0,2.0,Mixed_250,34.0,Speed,5000.0,1500.0,250.0
MainBlock,5ef3832ddd7d5a0f19b24f20:TSS_RECONF_111022,BLUE,blue,congruent,blue,1.0,373.0,3.0,,1668960833502.0,1668960833875.0,1668960831391.0,0.0,0.0,2.0,Mixed_250,34.0,Speed,5000.0,1500.0,250.0
MainBlock,5ef3832ddd7d5a0f19b24f20:TSS_RECONF_111022,YELLOW,red,incongruent,red,1.0,535.0,4.0,,1668960834379.0,1668960834914.0,1668960831391.0,0.0,0.0,2.0,Mixed_250,34.0,Speed,5000.0,1500.0,250.0
MainBlock,5ef3832ddd7d5a0f19b24f20:TSS_RECONF_111022,GREEN,green,congruent,green,1.0,614.0,5.0,,1668960835434.0,1668960836048.0,1668960831391.0,0.0,0.0,2.0,Mixed_250,34.0,Speed,5000.0,1500.0,250.0
MainBlock,5ef3832ddd7d5a0f19b24f20:TSS_RECONF_111022,,,,,,,,,,,,0.0,0.0,2.0,Mixed_250,34.0,Speed,5000.0,1500.0,250.0
MainBlock,5ef3832ddd7d5a0f19b24f20:TSS_RECONF_111022,YELLOW,yellow,congruent,yellow,1.0,581.0,1.0,,1668960841951.0,1668960842532.0,1668960841951.0,0.0,0.0,2.0,Mixed_250,35.0,Accuracy,7000.0,2000.0,250.0
MainBlock,5ef3832ddd7d5a0f19b24f20:TSS_RECONF_111022,GREEN,blue,incongruent,green,0.0,570.0,2.0,,1668960843036.0,1668960843606.0,1668960841951.0,0.0,0.0,2.0,Mixed_250,35.0,Accuracy,7000.0,2000.0,250.0
MainBlock,5ef3832ddd7d5a0f19b24f20:TSS_RECONF_111022,RED,green,incongruent,blue,0.0,745.0,3.0,,1668960844122.0,1668960844867.0,1668960841951.0,0.0,0.0,2.0,Mixed_250,35.0,Accuracy,7000.0,2000.0,250.0
MainBlock,5ef3832ddd7d5a0f19b24f20:TSS_RECONF_111022,BLUE,yellow,incongruent,yellow,1.0,606.0,4.0,,1668960845383.0,1668960845989.0,1668960841951.0,0.0,0.0,2.0,Mixed_250,35.0,Accuracy,7000.0,2000.0,250.0
MainBlock,5ef3832ddd7d5a0f19b24f20:TSS_RECONF_111022,GREEN,green,congruent,green,1.0,556.0,5.0,,1668960846512.0,1668960847068.0,1668960841951.0,0.0,0.0,2.0,Mixed_250,35.0,Accuracy,7000.0,2000.0,250.0
MainBlock,5ef3832ddd7d5a0f19b24f20:TSS_RECONF_111022,RED,yellow,incongruent,yellow,1.0,594.0,6.0,,1668960847583.0,1668960848177.0,1668960841951.0,0.0,0.0,2.0,Mixed_250,35.0,Accuracy,7000.0,2000.0,250.0
MainBlock,5ef3832ddd7d5a0f19b24f20:TSS_RECONF_111022,,,,,,,,,,,,0.0,0.0,2.0,Mixed_250,35.0,Accuracy,7000.0,2000.0,250.0
MainBlock,5ef3832ddd7d5a0f19b24f20:TSS_RECONF_111022,YELLOW,blue,incongruent,blue,1.0,1320.0,1.0,,1668960854505.0,1668960855825.0,1668960854504.0,0.0,0.0,2.0,Mixed_250,36.0,Speed,6000.0,2000.0,250.0
MainBlock,5ef3832ddd7d5a0f19b24f20:TSS_RECONF_111022,RED,red,congruent,red,1.0,524.0,2.0,,1668960856338.0,1668960856863.0,1668960854504.0,0.0,0.0,2.0,Mixed_250,36.0,Speed,6000.0,2000.0,250.0
MainBlock,5ef3832ddd7d5a0f19b24f20:TSS_RECONF_111022,BLUE,blue,congruent,blue,1.0,919.0,3.0,,1668960857373.0,1668960858292.0,1668960854504.0,0.0,0.0,2.0,Mixed_250,36.0,Speed,6000.0,2000.0,250.0
MainBlock,5ef3832ddd7d5a0f19b24f20:TSS_RECONF_111022,RED,green,incongruent,green,1.0,736.0,4.0,,1668960858809.0,1668960859545.0,1668960854504.0,0.0,0.0,2.0,Mixed_250,36.0,Speed,6000.0,2000.0,250.0
MainBlock,5ef3832ddd7d5a0f19b24f20:TSS_RECONF_111022,,,,,,,,,,,,0.0,0.0,2.0,Mixed_250,36.0,Speed,6000.0,2000.0,250.0
MainBlock,5ef3832ddd7d5a0f19b24f20:TSS_RECONF_111022,GREEN,yellow,incongruent,yellow,1.0,623.0,1.0,,1668960872272.0,1668960872895.0,1668960872271.0,0.0,0.0,3.0,Fixed_250_Speed,1.0,Speed,7000.0,2000.0,250.0
MainBlock,5ef3832ddd7d5a0f19b24f20:TSS_RECONF_111022,BLUE,blue,congruent,blue,1.0,527.0,2.0,,1668960873407.0,1668960873934.0,1668960872271.0,0.0,0.0,3.0,Fixed_250_Speed,1.0,Speed,7000.0,2000.0,250.0
MainBlock,5ef3832ddd7d5a0f19b24f20:TSS_RECONF_111022,YELLOW,green,incongruent,green,1.0,595.0,3.0,,1668960874447.0,1668960875042.0,1668960872271.0,0.0,0.0,3.0,Fixed_250_Speed,1.0,Speed,7000.0,2000.0,250.0
MainBlock,5ef3832ddd7d5a0f19b24f20:TSS_RECONF_111022,BLUE,blue,congruent,blue,1.0,676.0,4.0,,1668960875548.0,1668960876224.0,1668960872271.0,0.0,0.0,3.0,Fixed_250_Speed,1.0,Speed,7000.0,2000.0,250.0
MainBlock,5ef3832ddd7d5a0f19b24f20:TSS_RECONF_111022,RED,red,congruent,red,1.0,445.0,5.0,,1668960876744.0,1668960877189.0,1668960872271.0,0.0,0.0,3.0,Fixed_250_Speed,1.0,Speed,7000.0,2000.0,250.0
MainBlock,5ef3832ddd7d5a0f19b24f20:TSS_RECONF_111022,BLUE,green,incongruent,green,1.0,655.0,6.0,,1668960877703.0,1668960878358.0,1668960872271.0,0.0,0.0,3.0,Fixed_250_Speed,1.0,Speed,7000.0,2000.0,250.0
MainBlock,5ef3832ddd7d5a0f19b24f20:TSS_RECONF_111022,,,,,,,,,,,,0.0,0.0,3.0,Fixed_250_Speed,1.0,Speed,7000.0,2000.0,250.0
MainBlock,5ef3832ddd7d5a0f19b24f20:TSS_RECONF_111022,RED,red,congruent,red,1.0,611.0,1.0,,1668960884820.0,1668960885431.0,1668960884819.0,0.0,0.0,3.0,Fixed_250_Speed,2.0,Speed,7000.0,2000.0,250.0
MainBlock,5ef3832ddd7d5a0f19b24f20:TSS_RECONF_111022,YELLOW,green,incongruent,green,1.0,808.0,2.0,,1668960885953.0,1668960886761.0,1668960884819.0,0.0,0.0,3.0,Fixed_250_Speed,2.0,Speed,7000.0,2000.0,250.0
MainBlock,5ef3832ddd7d5a0f19b24f20:TSS_RECONF_111022,GREEN,blue,incongruent,blue,1.0,1267.0,3.0,,1668960887276.0,1668960888543.0,1668960884819.0,0.0,0.0,3.0,Fixed_250_Speed,2.0,Speed,7000.0,2000.0,250.0
MainBlock,5ef3832ddd7d5a0f19b24f20:TSS_RECONF_111022,YELLOW,yellow,congruent,yellow,1.0,611.0,4.0,,1668960889064.0,1668960889675.0,1668960884819.0,0.0,0.0,3.0,Fixed_250_Speed,2.0,Speed,7000.0,2000.0,250.0
MainBlock,5ef3832ddd7d5a0f19b24f20:TSS_RECONF_111022,RED,green,incongruent,green,1.0,525.0,5.0,,1668960890179.0,1668960890704.0,1668960884819.0,0.0,0.0,3.0,Fixed_250_Speed,2.0,Speed,7000.0,2000.0,250.0
MainBlock,5ef3832ddd7d5a0f19b24f20:TSS_RECONF_111022,BLUE,blue,congruent,blue,1.0,536.0,6.0,,1668960891217.0,1668960891753.0,1668960884819.0,0.0,0.0,3.0,Fixed_250_Speed,2.0,Speed,7000.0,2000.0,250.0
MainBlock,5ef3832ddd7d5a0f19b24f20:TSS_RECONF_111022,,,,,,,,,,,,0.0,0.0,3.0,Fixed_250_Speed,2.0,Speed,7000.0,2000.0,250.0
MainBlock,5ef3832ddd7d5a0f19b24f20:TSS_RECONF_111022,RED,red,congruent,red,1.0,565.0,1.0,,1668960897351.0,1668960897916.0,1668960897350.0,0.0,0.0,3.0,Fixed_250_Speed,3.0,Speed,6000.0,2000.0,250.0
MainBlock,5ef3832ddd7d5a0f19b24f20:TSS_RECONF_111022,BLUE,green,incongruent,green,1.0,798.0,2.0,,1668960898420.0,1668960899218.0,1668960897350.0,0.0,0.0,3.0,Fixed_250_Speed,3.0,Speed,6000.0,2000.0,250.0
MainBlock,5ef3832ddd7d5a0f19b24f20:TSS_RECONF_111022,YELLOW,red,incongruent,red,1.0,600.0,3.0,,1668960899731.0,1668960900331.0,1668960897350.0,0.0,0.0,3.0,Fixed_250_Speed,3.0,Speed,6000.0,2000.0,250.0
MainBlock,5ef3832ddd7d5a0f19b24f20:TSS_RECONF_111022,BLUE,blue,congruent,blue,1.0,471.0,4.0,,1668960900849.0,1668960901320.0,1668960897350.0,0.0,0.0,3.0,Fixed_250_Speed,3.0,Speed,6000.0,2000.0,250.0
MainBlock,5ef3832ddd7d5a0f19b24f20:TSS_RECONF_111022,YELLOW,green,incongruent,green,1.0,541.0,5.0,,1668960901838.0,1668960902379.0,1668960897350.0,0.0,0.0,3.0,Fixed_250_Speed,3.0,Speed,6000.0,2000.0,250.0
MainBlock,5ef3832ddd7d5a0f19b24f20:TSS_RECONF_111022,,,,,,,,,,,,0.0,0.0,3.0,Fixed_250_Speed,3.0,Speed,6000.0,2000.0,250.0
MainBlock,5ef3832ddd7d5a0f19b24f20:TSS_RECONF_111022,GREEN,green,congruent,green,1.0,664.0,1.0,,1668960908398.0,1668960909062.0,1668960908397.0,0.0,0.0,3.0,Fixed_250_Speed,4.0,Speed,6000.0,1500.0,250.0
MainBlock,5ef3832ddd7d5a0f19b24f20:TSS_RECONF_111022,RED,yellow,incongruent,yellow,1.0,521.0,2.0,,1668960909575.0,1668960910096.0,1668960908397.0,0.0,0.0,3.0,Fixed_250_Speed,4.0,Speed,6000.0,1500.0,250.0
MainBlock,5ef3832ddd7d5a0f19b24f20:TSS_RECONF_111022,GREEN,blue,incongruent,blue,1.0,837.0,3.0,,1668960910614.0,1668960911451.0,1668960908397.0,0.0,0.0,3.0,Fixed_250_Speed,4.0,Speed,6000.0,1500.0,250.0
MainBlock,5ef3832ddd7d5a0f19b24f20:TSS_RECONF_111022,RED,yellow,incongruent,yellow,1.0,870.0,4.0,,1668960911956.0,1668960912826.0,1668960908397.0,0.0,0.0,3.0,Fixed_250_Speed,4.0,Speed,6000.0,1500.0,250.0
MainBlock,5ef3832ddd7d5a0f19b24f20:TSS_RECONF_111022,GREEN,green,congruent,green,1.0,556.0,5.0,,1668960913344.0,1668960913900.0,1668960908397.0,0.0,0.0,3.0,Fixed_250_Speed,4.0,Speed,6000.0,1500.0,250.0
MainBlock,5ef3832ddd7d5a0f19b24f20:TSS_RECONF_111022,,,,,,,,,,,,0.0,0.0,3.0,Fixed_250_Speed,4.0,Speed,6000.0,1500.0,250.0
MainBlock,5ef3832ddd7d5a0f19b24f20:TSS_RECONF_111022,YELLOW,yellow,congruent,yellow,1.0,639.0,1.0,,1668960919429.0,1668960920068.0,1668960919428.0,0.0,0.0,3.0,Fixed_250_Speed,5.0,Speed,5000.0,1500.0,250.0
MainBlock,5ef3832ddd7d5a0f19b24f20:TSS_RECONF_111022,GREEN,red,incongruent,red,1.0,415.0,2.0,,1668960920579.0,1668960920994.0,1668960919428.0,0.0,0.0,3.0,Fixed_250_Speed,5.0,Speed,5000.0,1500.0,250.0
MainBlock,5ef3832ddd7d5a0f19b24f20:TSS_RECONF_111022,BLUE,blue,congruent,blue,1.0,519.0,3.0,,1668960921503.0,1668960922022.0,1668960919428.0,0.0,0.0,3.0,Fixed_250_Speed,5.0,Speed,5000.0,1500.0,250.0
MainBlock,5ef3832ddd7d5a0f19b24f20:TSS_RECONF_111022,YELLOW,green,incongruent,green,1.0,630.0,4.0,,1668960922540.0,1668960923170.0,1668960919428.0,0.0,0.0,3.0,Fixed_250_Speed,5.0,Speed,5000.0,1500.0,250.0
MainBlock,5ef3832ddd7d5a0f19b24f20:TSS_RECONF_111022,,,,,,,,,,,,0.0,0.0,3.0,Fixed_250_Speed,5.0,Speed,5000.0,1500.0,250.0
MainBlock,5ef3832ddd7d5a0f19b24f20:TSS_RECONF_111022,YELLOW,yellow,congruent,yellow,1.0,569.0,1.0,,1668960929982.0,1668960930551.0,1668960929981.0,0.0,0.0,3.0,Fixed_250_Speed,6.0,Speed,7000.0,2000.0,250.0
MainBlock,5ef3832ddd7d5a0f19b24f20:TSS_RECONF_111022,RED,green,incongruent,blue,0.0,631.0,2.0,,1668960931068.0,1668960931699.0,1668960929981.0,0.0,0.0,3.0,Fixed_250_Speed,6.0,Speed,7000.0,2000.0,250.0
MainBlock,5ef3832ddd7d5a0f19b24f20:TSS_RECONF_111022,GREEN,blue,incongruent,blue,1.0,560.0,3.0,,1668960932203.0,1668960932763.0,1668960929981.0,0.0,0.0,3.0,Fixed_250_Speed,6.0,Speed,7000.0,2000.0,250.0
MainBlock,5ef3832ddd7d5a0f19b24f20:TSS_RECONF_111022,BLUE,red,incongruent,yellow,0.0,616.0,4.0,,1668960933274.0,1668960933890.0,1668960929981.0,0.0,0.0,3.0,Fixed_250_Speed,6.0,Speed,7000.0,2000.0,250.0
MainBlock,5ef3832ddd7d5a0f19b24f20:TSS_RECONF_111022,YELLOW,yellow,congruent,yellow,1.0,596.0,5.0,,1668960934407.0,1668960935003.0,1668960929981.0,0.0,0.0,3.0,Fixed_250_Speed,6.0,Speed,7000.0,2000.0,250.0
MainBlock,5ef3832ddd7d5a0f19b24f20:TSS_RECONF_111022,BLUE,green,incongruent,green,1.0,602.0,6.0,,1668960935509.0,1668960936111.0,1668960929981.0,0.0,0.0,3.0,Fixed_250_Speed,6.0,Speed,7000.0,2000.0,250.0
MainBlock,5ef3832ddd7d5a0f19b24f20:TSS_RECONF_111022,,,,,,,,,,,,0.0,0.0,3.0,Fixed_250_Speed,6.0,Speed,7000.0,2000.0,250.0
MainBlock,5ef3832ddd7d5a0f19b24f20:TSS_RECONF_111022,GREEN,yellow,incongruent,yellow,1.0,559.0,1.0,,1668960941528.0,1668960942087.0,1668960941527.0,0.0,0.0,3.0,Fixed_250_Speed,7.0,Speed,5000.0,1000.0,250.0
MainBlock,5ef3832ddd7d5a0f19b24f20:TSS_RECONF_111022,BLUE,blue,congruent,blue,1.0,684.0,2.0,,1668960942599.0,1668960943283.0,1668960941527.0,0.0,0.0,3.0,Fixed_250_Speed,7.0,Speed,5000.0,1000.0,250.0
MainBlock,5ef3832ddd7d5a0f19b24f20:TSS_RECONF_111022,YELLOW,green,incongruent,green,1.0,655.0,3.0,,1668960943796.0,1668960944451.0,1668960941527.0,0.0,0.0,3.0,Fixed_250_Speed,7.0,Speed,5000.0,1000.0,250.0
MainBlock,5ef3832ddd7d5a0f19b24f20:TSS_RECONF_111022,RED,red,congruent,red,1.0,467.0,4.0,,1668960944958.0,1668960945425.0,1668960941527.0,0.0,0.0,3.0,Fixed_250_Speed,7.0,Speed,5000.0,1000.0,250.0
MainBlock,5ef3832ddd7d5a0f19b24f20:TSS_RECONF_111022,,,,,,,,,,,,0.0,0.0,3.0,Fixed_250_Speed,7.0,Speed,5000.0,1000.0,250.0
MainBlock,5ef3832ddd7d5a0f19b24f20:TSS_RECONF_111022,YELLOW,blue,incongruent,blue,1.0,1128.0,1.0,,1668960951075.0,1668960952203.0,1668960951075.0,0.0,0.0,3.0,Fixed_250_Speed,8.0,Speed,5000.0,1000.0,250.0
MainBlock,5ef3832ddd7d5a0f19b24f20:TSS_RECONF_111022,GREEN,green,congruent,green,1.0,464.0,2.0,,1668960952718.0,1668960953182.0,1668960951075.0,0.0,0.0,3.0,Fixed_250_Speed,8.0,Speed,5000.0,1000.0,250.0
MainBlock,5ef3832ddd7d5a0f19b24f20:TSS_RECONF_111022,RED,red,congruent,red,1.0,436.0,3.0,,1668960953691.0,1668960954127.0,1668960951075.0,0.0,0.0,3.0,Fixed_250_Speed,8.0,Speed,5000.0,1000.0,250.0
MainBlock,5ef3832ddd7d5a0f19b24f20:TSS_RECONF_111022,GREEN,blue,incongruent,blue,1.0,666.0,4.0,,1668960954648.0,1668960955314.0,1668960951075.0,0.0,0.0,3.0,Fixed_250_Speed,8.0,Speed,5000.0,1000.0,250.0
MainBlock,5ef3832ddd7d5a0f19b24f20:TSS_RECONF_111022,,,,,,,,,,,,0.0,0.0,3.0,Fixed_250_Speed,8.0,Speed,5000.0,1000.0,250.0
MainBlock,5ef3832ddd7d5a0f19b24f20:TSS_RECONF_111022,GREEN,blue,incongruent,blue,1.0,587.0,1.0,,1668960960619.0,1668960961206.0,1668960960618.0,0.0,0.0,3.0,Fixed_250_Speed,9.0,Speed,5000.0,1000.0,250.0
MainBlock,5ef3832ddd7d5a0f19b24f20:TSS_RECONF_111022,YELLOW,yellow,congruent,yellow,1.0,581.0,2.0,,1668960961719.0,1668960962300.0,1668960960618.0,0.0,0.0,3.0,Fixed_250_Speed,9.0,Speed,5000.0,1000.0,250.0
MainBlock,5ef3832ddd7d5a0f19b24f20:TSS_RECONF_111022,GREEN,green,congruent,green,1.0,604.0,3.0,,1668960962804.0,1668960963408.0,1668960960618.0,0.0,0.0,3.0,Fixed_250_Speed,9.0,Speed,5000.0,1000.0,250.0
MainBlock,5ef3832ddd7d5a0f19b24f20:TSS_RECONF_111022,BLUE,red,incongruent,red,1.0,389.0,4.0,,1668960963924.0,1668960964313.0,1668960960618.0,0.0,0.0,3.0,Fixed_250_Speed,9.0,Speed,5000.0,1000.0,250.0
MainBlock,5ef3832ddd7d5a0f19b24f20:TSS_RECONF_111022,YELLOW,blue,incongruent,blue,1.0,745.0,5.0,,1668960964819.0,1668960965564.0,1668960960618.0,0.0,0.0,3.0,Fixed_250_Speed,9.0,Speed,5000.0,1000.0,250.0
MainBlock,5ef3832ddd7d5a0f19b24f20:TSS_RECONF_111022,,,,,,,,,,,,0.0,0.0,3.0,Fixed_250_Speed,9.0,Speed,5000.0,1000.0,250.0
MainBlock,5ef3832ddd7d5a0f19b24f20:TSS_RECONF_111022,GREEN,red,incongruent,red,1.0,565.0,1.0,,1668960970663.0,1668960971228.0,1668960970662.0,0.0,0.0,3.0,Fixed_250_Speed,10.0,Speed,6000.0,1500.0,250.0
MainBlock,5ef3832ddd7d5a0f19b24f20:TSS_RECONF_111022,YELLOW,yellow,congruent,yellow,1.0,590.0,2.0,,1668960971733.0,1668960972323.0,1668960970662.0,0.0,0.0,3.0,Fixed_250_Speed,10.0,Speed,6000.0,1500.0,250.0
MainBlock,5ef3832ddd7d5a0f19b24f20:TSS_RECONF_111022,GREEN,blue,incongruent,blue,1.0,559.0,3.0,,1668960972831.0,1668960973390.0,1668960970662.0,0.0,0.0,3.0,Fixed_250_Speed,10.0,Speed,6000.0,1500.0,250.0
MainBlock,5ef3832ddd7d5a0f19b24f20:TSS_RECONF_111022,BLUE,yellow,incongruent,yellow,1.0,566.0,4.0,,1668960973903.0,1668960974469.0,1668960970662.0,0.0,0.0,3.0,Fixed_250_Speed,10.0,Speed,6000.0,1500.0,250.0
MainBlock,5ef3832ddd7d5a0f19b24f20:TSS_RECONF_111022,GREEN,green,congruent,green,1.0,469.0,5.0,,1668960974974.0,1668960975443.0,1668960970662.0,0.0,0.0,3.0,Fixed_250_Speed,10.0,Speed,6000.0,1500.0,250.0
MainBlock,5ef3832ddd7d5a0f19b24f20:TSS_RECONF_111022,RED,red,congruent,red,1.0,437.0,6.0,,1668960975961.0,1668960976398.0,1668960970662.0,0.0,0.0,3.0,Fixed_250_Speed,10.0,Speed,6000.0,1500.0,250.0
MainBlock,5ef3832ddd7d5a0f19b24f20:TSS_RECONF_111022,,,,,,,,,,,,0.0,0.0,3.0,Fixed_250_Speed,10.0,Speed,6000.0,1500.0,250.0
MainBlock,5ef3832ddd7d5a0f19b24f20:TSS_RECONF_111022,YELLOW,green,incongruent,blue,0.0,737.0,1.0,,1668960981702.0,1668960982439.0,1668960981702.0,0.0,0.0,3.0,Fixed_250_Speed,11.0,Speed,6000.0,1500.0,250.0
MainBlock,5ef3832ddd7d5a0f19b24f20:TSS_RECONF_111022,BLUE,blue,congruent,green,0.0,687.0,2.0,,1668960982959.0,1668960983646.0,1668960981702.0,0.0,0.0,3.0,Fixed_250_Speed,11.0,Speed,6000.0,1500.0,250.0
MainBlock,5ef3832ddd7d5a0f19b24f20:TSS_RECONF_111022,GREEN,green,congruent,green,1.0,703.0,3.0,,1668960984169.0,1668960984872.0,1668960981702.0,0.0,0.0,3.0,Fixed_250_Speed,11.0,Speed,6000.0,1500.0,250.0
MainBlock,5ef3832ddd7d5a0f19b24f20:TSS_RECONF_111022,BLUE,red,incongruent,red,1.0,507.0,4.0,,1668960985384.0,1668960985891.0,1668960981702.0,0.0,0.0,3.0,Fixed_250_Speed,11.0,Speed,6000.0,1500.0,250.0
MainBlock,5ef3832ddd7d5a0f19b24f20:TSS_RECONF_111022,YELLOW,yellow,congruent,yellow,1.0,512.0,5.0,,1668960986408.0,1668960986920.0,1668960981702.0,0.0,0.0,3.0,Fixed_250_Speed,11.0,Speed,6000.0,1500.0,250.0
MainBlock,5ef3832ddd7d5a0f19b24f20:TSS_RECONF_111022,,,,,,,,,,,,0.0,0.0,3.0,Fixed_250_Speed,11.0,Speed,6000.0,1500.0,250.0
MainBlock,5ef3832ddd7d5a0f19b24f20:TSS_RECONF_111022,RED,yellow,incongruent,yellow,1.0,610.0,1.0,,1668960992732.0,1668960993342.0,1668960992731.0,0.0,0.0,3.0,Fixed_250_Speed,12.0,Speed,7000.0,1500.0,250.0
MainBlock,5ef3832ddd7d5a0f19b24f20:TSS_RECONF_111022,GREEN,green,congruent,green,1.0,498.0,2.0,,1668960993852.0,1668960994350.0,1668960992731.0,0.0,0.0,3.0,Fixed_250_Speed,12.0,Speed,7000.0,1500.0,250.0
MainBlock,5ef3832ddd7d5a0f19b24f20:TSS_RECONF_111022,YELLOW,yellow,congruent,yellow,1.0,496.0,3.0,,1668960994868.0,1668960995364.0,1668960992731.0,0.0,0.0,3.0,Fixed_250_Speed,12.0,Speed,7000.0,1500.0,250.0
MainBlock,5ef3832ddd7d5a0f19b24f20:TSS_RECONF_111022,RED,blue,incongruent,red,0.0,606.0,4.0,,1668960995876.0,1668960996482.0,1668960992731.0,0.0,0.0,3.0,Fixed_250_Speed,12.0,Speed,7000.0,1500.0,250.0
MainBlock,5ef3832ddd7d5a0f19b24f20:TSS_RECONF_111022,GREEN,green,congruent,green,1.0,650.0,5.0,,1668960996995.0,1668960997645.0,1668960992731.0,0.0,0.0,3.0,Fixed_250_Speed,12.0,Speed,7000.0,1500.0,250.0
MainBlock,5ef3832ddd7d5a0f19b24f20:TSS_RECONF_111022,BLUE,red,incongruent,red,1.0,481.0,6.0,,1668960998158.0,1668960998639.0,1668960992731.0,0.0,0.0,3.0,Fixed_250_Speed,12.0,Speed,7000.0,1500.0,250.0
MainBlock,5ef3832ddd7d5a0f19b24f20:TSS_RECONF_111022,YELLOW,yellow,congruent,yellow,1.0,448.0,7.0,,1668960999161.0,1668960999609.0,1668960992731.0,0.0,0.0,3.0,Fixed_250_Speed,12.0,Speed,7000.0,1500.0,250.0
MainBlock,5ef3832ddd7d5a0f19b24f20:TSS_RECONF_111022,,,,,,,,,,,,0.0,0.0,3.0,Fixed_250_Speed,12.0,Speed,7000.0,1500.0,250.0
MainBlock,5ef3832ddd7d5a0f19b24f20:TSS_RECONF_111022,YELLOW,yellow,congruent,yellow,1.0,571.0,1.0,,1668961004267.0,1668961004838.0,1668961004267.0,0.0,0.0,3.0,Fixed_250_Speed,13.0,Speed,7000.0,1000.0,250.0
MainBlock,5ef3832ddd7d5a0f19b24f20:TSS_RECONF_111022,GREEN,red,incongruent,red,1.0,479.0,2.0,,1668961005348.0,1668961005827.0,1668961004267.0,0.0,0.0,3.0,Fixed_250_Speed,13.0,Speed,7000.0,1000.0,250.0
MainBlock,5ef3832ddd7d5a0f19b24f20:TSS_RECONF_111022,YELLOW,blue,incongruent,blue,1.0,719.0,3.0,,1668961006340.0,1668961007059.0,1668961004267.0,0.0,0.0,3.0,Fixed_250_Speed,13.0,Speed,7000.0,1000.0,250.0
MainBlock,5ef3832ddd7d5a0f19b24f20:TSS_RECONF_111022,GREEN,green,congruent,green,1.0,378.0,4.0,,1668961007572.0,1668961007950.0,1668961004267.0,0.0,0.0,3.0,Fixed_250_Speed,13.0,Speed,7000.0,1000.0,250.0
MainBlock,5ef3832ddd7d5a0f19b24f20:TSS_RECONF_111022,BLUE,blue,congruent,blue,1.0,599.0,5.0,,1668961008468.0,1668961009067.0,1668961004267.0,0.0,0.0,3.0,Fixed_250_Speed,13.0,Speed,7000.0,1000.0,250.0
MainBlock,5ef3832ddd7d5a0f19b24f20:TSS_RECONF_111022,RED,yellow,incongruent,yellow,1.0,464.0,6.0,,1668961009583.0,1668961010047.0,1668961004267.0,0.0,0.0,3.0,Fixed_250_Speed,13.0,Speed,7000.0,1000.0,250.0
MainBlock,5ef3832ddd7d5a0f19b24f20:TSS_RECONF_111022,GREEN,green,congruent,green,1.0,537.0,7.0,,1668961010558.0,1668961011095.0,1668961004267.0,0.0,0.0,3.0,Fixed_250_Speed,13.0,Speed,7000.0,1000.0,250.0
MainBlock,5ef3832ddd7d5a0f19b24f20:TSS_RECONF_111022,,,,,,,,,,,,0.0,0.0,3.0,Fixed_250_Speed,13.0,Speed,7000.0,1000.0,250.0
MainBlock,5ef3832ddd7d5a0f19b24f20:TSS_RECONF_111022,YELLOW,blue,incongruent,blue,1.0,670.0,1.0,,1668961015808.0,1668961016478.0,1668961015808.0,0.0,0.0,3.0,Fixed_250_Speed,14.0,Speed,5000.0,1000.0,250.0
MainBlock,5ef3832ddd7d5a0f19b24f20:TSS_RECONF_111022,GREEN,green,congruent,green,1.0,581.0,2.0,,1668961016991.0,1668961017572.0,1668961015808.0,0.0,0.0,3.0,Fixed_250_Speed,14.0,Speed,5000.0,1000.0,250.0
MainBlock,5ef3832ddd7d5a0f19b24f20:TSS_RECONF_111022,RED,red,congruent,red,1.0,458.0,3.0,,1668961018077.0,1668961018535.0,1668961015808.0,0.0,0.0,3.0,Fixed_250_Speed,14.0,Speed,5000.0,1000.0,250.0
MainBlock,5ef3832ddd7d5a0f19b24f20:TSS_RECONF_111022,GREEN,yellow,incongruent,yellow,1.0,421.0,4.0,,1668961019049.0,1668961019470.0,1668961015808.0,0.0,0.0,3.0,Fixed_250_Speed,14.0,Speed,5000.0,1000.0,250.0
MainBlock,5ef3832ddd7d5a0f19b24f20:TSS_RECONF_111022,BLUE,red,incongruent,red,1.0,579.0,5.0,,1668961019989.0,1668961020568.0,1668961015808.0,0.0,0.0,3.0,Fixed_250_Speed,14.0,Speed,5000.0,1000.0,250.0
MainBlock,5ef3832ddd7d5a0f19b24f20:TSS_RECONF_111022,,,,,,,,,,,,0.0,0.0,3.0,Fixed_250_Speed,14.0,Speed,5000.0,1000.0,250.0
MainBlock,5ef3832ddd7d5a0f19b24f20:TSS_RECONF_111022,RED,blue,incongruent,blue,1.0,684.0,1.0,,1668961026340.0,1668961027024.0,1668961026340.0,0.0,0.0,3.0,Fixed_250_Speed,15.0,Speed,7000.0,2000.0,250.0
MainBlock,5ef3832ddd7d5a0f19b24f20:TSS_RECONF_111022,YELLOW,yellow,congruent,yellow,1.0,547.0,2.0,,1668961027540.0,1668961028087.0,1668961026340.0,0.0,0.0,3.0,Fixed_250_Speed,15.0,Speed,7000.0,2000.0,250.0
MainBlock,5ef3832ddd7d5a0f19b24f20:TSS_RECONF_111022,GREEN,blue,incongruent,blue,1.0,578.0,3.0,,1668961028603.0,1668961029181.0,1668961026340.0,0.0,0.0,3.0,Fixed_250_Speed,15.0,Speed,7000.0,2000.0,250.0
MainBlock,5ef3832ddd7d5a0f19b24f20:TSS_RECONF_111022,RED,green,incongruent,green,1.0,524.0,4.0,,1668961029691.0,1668961030215.0,1668961026340.0,0.0,0.0,3.0,Fixed_250_Speed,15.0,Speed,7000.0,2000.0,250.0
MainBlock,5ef3832ddd7d5a0f19b24f20:TSS_RECONF_111022,BLUE,blue,congruent,blue,1.0,489.0,5.0,,1668961030730.0,1668961031219.0,1668961026340.0,0.0,0.0,3.0,Fixed_250_Speed,15.0,Speed,7000.0,2000.0,250.0
MainBlock,5ef3832ddd7d5a0f19b24f20:TSS_RECONF_111022,RED,red,congruent,red,1.0,471.0,6.0,,1668961031737.0,1668961032208.0,1668961026340.0,0.0,0.0,3.0,Fixed_250_Speed,15.0,Speed,7000.0,2000.0,250.0
