"subj_idx","trialNum","rt","intervalType","blockType","isi","scaledRunningTime","response","congruency"
"5694e7b5e0c800000b5a3841",1,1.123,"Accuracy","Varying","ISI_250",-1.28429871020575,1,"incongruent"
"5694e7b5e0c800000b5a3841",2,0.951,"Accuracy","Varying","ISI_250",-0.448843650789011,1,"congruent"
"5694e7b5e0c800000b5a3841",3,2.19,"Accuracy","Varying","ISI_250",0.444639453716334,1,"congruent"
"5694e7b5e0c800000b5a3841",1,0.868,"Speed","Varying","ISI_250",-1.28429871020575,1,"congruent"
"5694e7b5e0c800000b5a3841",2,1.015,"Speed","Varying","ISI_250",-0.638550721270995,1,"incongruent"
"5694e7b5e0c800000b5a3841",3,1.298,"Speed","Varying","ISI_250",0.302545138178848,1,"incongruent"
"5694e7b5e0c800000b5a3841",1,0.767,"Accuracy","Varying","ISI_250",-1.28429871020575,1,"incongruent"
"5694e7b5e0c800000b5a3841",2,0.671,"Accuracy","Varying","ISI_250",-0.713689600167781,1,"congruent"
"5694e7b5e0c800000b5a3841",3,0.841,"Accuracy","Varying","ISI_250",-0.0285122985446146,1,"congruent"
"5694e7b5e0c800000b5a3841",4,0.98,"Accuracy","Varying","ISI_250",0.783136383399874,1,"incongruent"
"5694e7b5e0c800000b5a3841",1,1.386,"Speed","Varying","ISI_250",-1.28429871020575,1,"congruent"
"5694e7b5e0c800000b5a3841",2,2.406,"Speed","Varying","ISI_250",-0.253184985938964,1,"incongruent"
"5694e7b5e0c800000b5a3841",1,0.8,"Accuracy","Varying","ISI_250",-1.28429871020575,1,"congruent"
"5694e7b5e0c800000b5a3841",2,1.431,"Accuracy","Varying","ISI_250",-0.689139273399524,1,"incongruent"
"5694e7b5e0c800000b5a3841",3,0.78,"Accuracy","Varying","ISI_250",0.561439493189556,1,"congruent"
"5694e7b5e0c800000b5a3841",2,0.895,"Speed","Varying","ISI_250",-0.443636005716956,1,"congruent"
"5694e7b5e0c800000b5a3841",4,1.037,"Speed","Varying","ISI_250",0.955732620073679,1,"incongruent"
"5694e7b5e0c800000b5a3841",1,0.9,"Accuracy","Varying","ISI_250",-1.28429871020575,1,"incongruent"
"5694e7b5e0c800000b5a3841",2,0.529,"Accuracy","Varying","ISI_250",-0.614744343798746,1,"congruent"
"5694e7b5e0c800000b5a3841",3,0.808,"Accuracy","Varying","ISI_250",-0.0352078422086846,1,"congruent"
"5694e7b5e0c800000b5a3841",4,1.6,"Accuracy","Varying","ISI_250",0.751890512967547,1,"incongruent"
"5694e7b5e0c800000b5a3841",2,0.581,"Speed","Varying","ISI_250",-0.183997701410241,1,"congruent"
"5694e7b5e0c800000b5a3841",3,1.299,"Speed","Varying","ISI_250",0.434224163572225,1,"congruent"
"5694e7b5e0c800000b5a3841",4,1.783,"Speed","Varying","ISI_250",1.58660162308828,1,"incongruent"
"5694e7b5e0c800000b5a3841",1,1.039,"Accuracy","Varying","ISI_250",-1.28429871020575,1,"incongruent"
"5694e7b5e0c800000b5a3841",2,1.15,"Accuracy","Varying","ISI_250",-0.511335391653664,1,"congruent"
"5694e7b5e0c800000b5a3841",3,0.628,"Accuracy","Varying","ISI_250",0.530193622757229,1,"congruent"
"5694e7b5e0c800000b5a3841",4,0.561,"Accuracy","Varying","ISI_250",1.18338110465206,1,"incongruent"
"5694e7b5e0c800000b5a3841",2,0.84,"Speed","Varying","ISI_250",-0.563411842374209,1,"congruent"
"5694e7b5e0c800000b5a3841",3,0.848,"Speed","Varying","ISI_250",0.247492890274272,1,"congruent"
"5694e7b5e0c800000b5a3841",4,0.581,"Speed","Varying","ISI_250",1.06434921729082,1,"incongruent"
"5694e7b5e0c800000b5a3841",5,0.69,"Speed","Varying","ISI_250",1.68257108227328,1,"congruent"
"5694e7b5e0c800000b5a3841",1,0.953,"Accuracy","Varying","ISI_250",-1.28429871020575,1,"congruent"
"5694e7b5e0c800000b5a3841",2,0.807,"Accuracy","Varying","ISI_250",-0.575315031110333,1,"incongruent"
"5694e7b5e0c800000b5a3841",3,0.572,"Accuracy","Varying","ISI_250",0.211039374769891,1,"congruent"
"5694e7b5e0c800000b5a3841",4,1.277,"Accuracy","Varying","ISI_250",0.822565696088287,1,"incongruent"
"5694e7b5e0c800000b5a3841",1,0.916,"Accuracy","Varying","ISI_250",-1.28429871020575,1,"congruent"
"5694e7b5e0c800000b5a3841",2,1.309,"Accuracy","Varying","ISI_250",-0.602841155062621,1,"incongruent"
"5694e7b5e0c800000b5a3841",1,2.541,"Speed","Varying","ISI_250",-1.28429871020575,1,"congruent"
"5694e7b5e0c800000b5a3841",2,0.754,"Speed","Varying","ISI_250",0.606076450950022,1,"incongruent"
"5694e7b5e0c800000b5a3841",3,0.588,"Speed","Varying","ISI_250",1.35300154414183,1,"congruent"
"5694e7b5e0c800000b5a3841",4,0.949,"Speed","Varying","ISI_250",1.97643105419635,1,"incongruent"
"5694e7b5e0c800000b5a3841",1,0.953,"Accuracy","Varying","ISI_250",-1.28429871020575,1,"incongruent"
"5694e7b5e0c800000b5a3841",2,0.607,"Accuracy","Varying","ISI_250",-0.575315031110333,1,"congruent"
"5694e7b5e0c800000b5a3841",3,1.06,"Accuracy","Varying","ISI_250",0.0622495155683347,1,"congruent"
"5694e7b5e0c800000b5a3841",4,0.804,"Accuracy","Varying","ISI_250",1.03682309333853,1,"incongruent"
"5694e7b5e0c800000b5a3841",5,0.812,"Accuracy","Varying","ISI_250",1.82094565133073,1,"incongruent"
"5694e7b5e0c800000b5a3841",1,1.194,"Speed","Varying","ISI_250",-1.28429871020575,1,"congruent"
"5694e7b5e0c800000b5a3841",2,1.379,"Speed","Varying","ISI_250",-0.396023250772458,1,"incongruent"
"5694e7b5e0c800000b5a3841",3,0.9,"Speed","Varying","ISI_250",0.815870152424217,1,"incongruent"
"5694e7b5e0c800000b5a3841",1,0.892,"Accuracy","Varying","ISI_250",-1.28429871020575,1,"incongruent"
"5694e7b5e0c800000b5a3841",2,0.966,"Accuracy","Varying","ISI_250",-0.620695938166808,1,"congruent"
"5694e7b5e0c800000b5a3841",3,0.793,"Accuracy","Varying","ISI_250",0.283946405778653,1,"incongruent"
"5694e7b5e0c800000b5a3841",4,0.785,"Accuracy","Varying","ISI_250",1.05988552151477,1,"congruent"
"5694e7b5e0c800000b5a3841",5,0.815,"Accuracy","Varying","ISI_250",1.82987304288282,1,"congruent"
"5694e7b5e0c800000b5a3841",1,1.574,"Speed","Varying","ISI_250",-1.28429871020575,1,"incongruent"
"5694e7b5e0c800000b5a3841",1,0.85,"Accuracy","Varying","ISI_250",-1.28429871020575,1,"congruent"
"5694e7b5e0c800000b5a3841",2,0.944,"Accuracy","Varying","ISI_250",-0.651941808599135,1,"incongruent"
"5694e7b5e0c800000b5a3841",3,1.647,"Accuracy","Varying","ISI_250",0.236333650834155,1,"congruent"
"5694e7b5e0c800000b5a3841",1,0.723,"Speed","Varying","ISI_250",-1.28429871020575,1,"congruent"
"5694e7b5e0c800000b5a3841",2,0.808,"Speed","Varying","ISI_250",-0.746423369192123,1,"incongruent"
"5694e7b5e0c800000b5a3841",3,1.046,"Speed","Varying","ISI_250",0.040674985984109,1,"incongruent"
"5694e7b5e0c800000b5a3841",2,2.979,"Accuracy","Varying","ISI_250",-0.325348067651719,1,"congruent"
"5694e7b5e0c800000b5a3841",2,0.669,"Speed","Varying","ISI_250",1.41326143711846,1,"congruent"
"5694e7b5e0c800000b5a3841",3,0.672,"Speed","Varying","ISI_250",2.09695084014961,1,"incongruent"
"5694e7b5e0c800000b5a3841",1,1.31,"Accuracy","Varying","ISI_250",-1.28429871020575,1,"incongruent"
"5694e7b5e0c800000b5a3841",2,0.677,"Accuracy","Varying","ISI_250",-0.309725132435556,1,"congruent"
"5694e7b5e0c800000b5a3841",3,1.911,"Accuracy","Varying","ISI_250",0.379915864963657,1,"incongruent"
"5694e7b5e0c800000b5a3841",1,0.934,"Speed","Varying","ISI_250",-1.28429871020575,1,"congruent"
"5694e7b5e0c800000b5a3841",2,1.805,"Speed","Varying","ISI_250",-0.589450067734481,1,"incongruent"
"5694e7b5e0c800000b5a3841",3,1.065,"Speed","Varying","ISI_250",0.939365735561508,1,"incongruent"
"5694e7b5e0c800000b5a3841",1,1.093,"Accuracy","Varying","ISI_250",-1.28429871020575,1,"congruent"
"5694e7b5e0c800000b5a3841",2,1.125,"Accuracy","Varying","ISI_250",-0.471162129669244,1,"incongruent"
"5694e7b5e0c800000b5a3841",3,0.839,"Accuracy","Varying","ISI_250",0.551768152341454,1,"incongruent"
"5694e7b5e0c800000b5a3841",4,0.757,"Accuracy","Varying","ISI_250",1.36192893569393,1,"congruent"
"5694e7b5e0c800000b5a3841",2,0.966,"Speed","Varying","ISI_250",1.18784480042811,1,"incongruent"
"5694e7b5e0c800000b5a3841",2,1.114,"Accuracy","Varying","ISI_250",2.56861469381855,1,"incongruent"
"5694e7b5e0c800000b5a3841",1,1.62,"Accuracy","Varying","ISI_250",-1.28429871020575,1,"congruent"
"5694e7b5e0c800000b5a3841",2,2.034,"Accuracy","Varying","ISI_250",-0.0791008506731437,1,"incongruent"
"5694e7b5e0c800000b5a3841",3,0.655,"Accuracy","Varying","ISI_250",1.62007934140863,1,"incongruent"
"5694e7b5e0c800000b5a3841",1,0.98,"Speed","Varying","ISI_250",-1.28429871020575,1,"incongruent"
"5694e7b5e0c800000b5a3841",1,2.933,"Accuracy","Varying","ISI_250",-1.28429871020575,1,"incongruent"
"5694e7b5e0c800000b5a3841",2,1.415,"Accuracy","Varying","ISI_250",0.897704574985073,1,"congruent"
"5694e7b5e0c800000b5a3841",2,0.571,"Speed","Varying","ISI_250",0.79131982565596,1,"congruent"
"5694e7b5e0c800000b5a3841",3,0.673,"Speed","Varying","ISI_250",1.40210219767835,1,"congruent"
"5694e7b5e0c800000b5a3841",1,0.893,"Accuracy","Varying","ISI_250",-1.28429871020575,1,"congruent"
"5694e7b5e0c800000b5a3841",2,0.738,"Accuracy","Varying","ISI_250",-0.6199519888708,1,"incongruent"
"5694e7b5e0c800000b5a3841",3,0.73,"Accuracy","Varying","ISI_250",0.115069915584887,1,"incongruent"
"5694e7b5e0c800000b5a3841",4,0.794,"Accuracy","Varying","ISI_250",0.844140225672512,1,"incongruent"
"5694e7b5e0c800000b5a3841",1,1.222,"Speed","Varying","ISI_250",-1.28429871020575,1,"congruent"
"5694e7b5e0c800000b5a3841",2,1.258,"Speed","Varying","ISI_250",-0.37519267048424,1,"incongruent"
"5694e7b5e0c800000b5a3841",3,1.237,"Speed","Varying","ISI_250",0.746682867895493,1,"incongruent"
"5694e7b5e0c800000b5a3841",1,1.85,"Accuracy","Varying","ISI_250",-1.28429871020575,1,"incongruent"
"5694e7b5e0c800000b5a3841",2,0.755,"Accuracy","Varying","ISI_250",0.0920074874086459,1,"congruent"
"5694e7b5e0c800000b5a3841",3,1.456,"Accuracy","Varying","ISI_250",0.839676529896466,1,"congruent"
"5694e7b5e0c800000b5a3841",1,0.948,"Speed","Varying","ISI_250",-1.28429871020575,1,"incongruent"
"5694e7b5e0c800000b5a3841",2,0.671,"Speed","Varying","ISI_250",-0.579034777590372,1,"congruent"
"5694e7b5e0c800000b5a3841",3,0.501,"Speed","Varying","ISI_250",0.106142524032794,1,"congruent"
"5694e7b5e0c800000b5a3841",4,0.993,"Speed","Varying","ISI_250",0.664848445334637,1,"incongruent"
"5694e7b5e0c800000b5a3841",5,0.744,"Speed","Varying","ISI_250",1.58957742027231,1,"congruent"
"5694e7b5e0c800000b5a3841",1,0.822,"Accuracy","Varying","ISI_1000",-1.28429871020575,1,"congruent"
"5694e7b5e0c800000b5a3841",2,1.056,"Accuracy","Varying","ISI_1000",-0.672772388887353,1,"incongruent"
"5694e7b5e0c800000b5a3841",3,0.92,"Accuracy","Varying","ISI_1000",0.298825391698809,1,"incongruent"
"5694e7b5e0c800000b5a3841",4,0.625,"Accuracy","Varying","ISI_1000",1.16924606802791,1,"congruent"
"5694e7b5e0c800000b5a3841",5,0.481,"Accuracy","Varying","ISI_1000",1.82020170203472,1,"congruent"
"5694e7b5e0c800000b5a3841",1,0.665,"Speed","Varying","ISI_1000",-1.28429871020575,1,"incongruent"
"5694e7b5e0c800000b5a3841",2,0.624,"Speed","Varying","ISI_1000",-0.789572428360574,1,"congruent"
"5694e7b5e0c800000b5a3841",3,0.629,"Speed","Varying","ISI_1000",-0.139360743649774,1,"congruent"
"5694e7b5e0c800000b5a3841",4,1.017,"Speed","Varying","ISI_1000",0.514570687541065,1,"incongruent"
"5694e7b5e0c800000b5a3841",1,1.236,"Accuracy","Varying","ISI_1000",-1.28429871020575,1,"incongruent"
"5694e7b5e0c800000b5a3841",2,0.825,"Accuracy","Varying","ISI_1000",-0.364777380340131,1,"congruent"
"5694e7b5e0c800000b5a3841",3,0.892,"Accuracy","Varying","ISI_1000",0.434968112868233,1,"congruent"
"5694e7b5e0c800000b5a3841",4,1.135,"Accuracy","Varying","ISI_1000",1.28455820890912,1,"incongruent"
"5694e7b5e0c800000b5a3841",1,1.003,"Speed","Varying","ISI_1000",-1.28429871020575,1,"incongruent"
"5694e7b5e0c800000b5a3841",2,1.034,"Speed","Varying","ISI_1000",-0.538117566309944,1,"congruent"
"5694e7b5e0c800000b5a3841",3,0.78,"Speed","Varying","ISI_1000",0.417113329764046,1,"incongruent"
"5694e7b5e0c800000b5a3841",4,1.279,"Speed","Varying","ISI_1000",1.18338110465206,1,"incongruent"
"5694e7b5e0c800000b5a3841",1,0.716,"Accuracy","Varying","ISI_1000",-1.28429871020575,1,"incongruent"
"5694e7b5e0c800000b5a3841",2,0.601,"Accuracy","Varying","ISI_1000",-0.751631014264177,1,"congruent"
"5694e7b5e0c800000b5a3841",3,0.625,"Accuracy","Varying","ISI_1000",-0.118530163361556,1,"incongruent"
"5694e7b5e0c800000b5a3841",4,1.006,"Accuracy","Varying","ISI_1000",0.532425470645252,1,"incongruent"
"5694e7b5e0c800000b5a3841",5,0.773,"Accuracy","Varying","ISI_1000",1.46682578643102,1,"congruent"
"5694e7b5e0c800000b5a3841",1,1.079,"Speed","Varying","ISI_1000",-1.28429871020575,1,"congruent"
"5694e7b5e0c800000b5a3841",2,1.611,"Speed","Varying","ISI_1000",-0.481577419813353,1,"incongruent"
"5694e7b5e0c800000b5a3841",3,0.526,"Speed","Varying","ISI_1000",0.902912220057127,1,"congruent"
"5694e7b5e0c800000b5a3841",2,0.591,"Accuracy","Varying","ISI_1000",-0.419085678948699,1,"incongruent"
"5694e7b5e0c800000b5a3841",3,0.621,"Accuracy","Varying","ISI_1000",0.206575678993844,1,"congruent"
"5694e7b5e0c800000b5a3841",4,0.578,"Accuracy","Varying","ISI_1000",0.854555515816621,1,"incongruent"
"5694e7b5e0c800000b5a3841",5,0.488,"Accuracy","Varying","ISI_1000",1.47054553291106,1,"congruent"
"5694e7b5e0c800000b5a3841",6,0.93,"Accuracy","Varying","ISI_1000",2.01958011336481,1,"incongruent"
"5694e7b5e0c800000b5a3841",1,1.172,"Speed","Varying","ISI_1000",-1.28429871020575,1,"congruent"
"5694e7b5e0c800000b5a3841",2,1.099,"Speed","Varying","ISI_1000",-0.412390135284629,1,"incongruent"
"5694e7b5e0c800000b5a3841",3,0.608,"Speed","Varying","ISI_1000",0.591197465029867,1,"incongruent"
"5694e7b5e0c800000b5a3841",4,0.452,"Speed","Varying","ISI_1000",1.22950596100454,1,"congruent"
"5694e7b5e0c800000b5a3841",5,0.478,"Speed","Varying","ISI_1000",1.751758366802,1,"congruent"
"5694e7b5e0c800000b5a3841",1,2.896,"Accuracy","Varying","ISI_1000",-1.28429871020575,1,"incongruent"
"5694e7b5e0c800000b5a3841",2,1.834,"Accuracy","Varying","ISI_1000",0.870178451032785,1,"congruent"
"5694e7b5e0c800000b5a3841",1,0.709,"Speed","Varying","ISI_1000",-1.28429871020575,1,"congruent"
"5694e7b5e0c800000b5a3841",2,0.584,"Speed","Varying","ISI_1000",-0.756838659336232,1,"incongruent"
"5694e7b5e0c800000b5a3841",3,1.361,"Speed","Varying","ISI_1000",-0.136384946465743,1,"congruent"
"5694e7b5e0c800000b5a3841",1,0.797,"Accuracy","Varying","ISI_1000",-1.28429871020575,1,"congruent"
"5694e7b5e0c800000b5a3841",2,1.555,"Accuracy","Varying","ISI_1000",-0.691371121287547,1,"incongruent"
"5694e7b5e0c800000b5a3841",1,0.754,"Speed","Varying","ISI_1000",-1.28429871020575,1,"incongruent"
"5694e7b5e0c800000b5a3841",2,0.525,"Speed","Varying","ISI_1000",-0.723360941015882,1,"congruent"
"5694e7b5e0c800000b5a3841",3,0.948,"Speed","Varying","ISI_1000",-0.146800236609852,1,"incongruent"
"5694e7b5e0c800000b5a3841",1,1.159,"Accuracy","Varying","ISI_1000",-1.28429871020575,1,"congruent"
"5694e7b5e0c800000b5a3841",2,0.58,"Accuracy","Varying","ISI_1000",-0.422061476132731,1,"incongruent"
"5694e7b5e0c800000b5a3841",3,0.703,"Accuracy","Varying","ISI_1000",0.195416439553727,1,"incongruent"
"5694e7b5e0c800000b5a3841",1,0.667,"Speed","Varying","ISI_1000",-1.28429871020575,1,"congruent"
"5694e7b5e0c800000b5a3841",2,0.821,"Speed","Varying","ISI_1000",-0.788084529768559,1,"incongruent"
"5694e7b5e0c800000b5a3841",1,2.324,"Accuracy","Varying","ISI_1000",-1.28429871020575,1,"incongruent"
"5694e7b5e0c800000b5a3841",2,0.695,"Accuracy","Varying","ISI_1000",0.444639453716334,1,"congruent"
"5694e7b5e0c800000b5a3841",3,0.955,"Accuracy","Varying","ISI_1000",1.14767153844369,1,"incongruent"
"5694e7b5e0c800000b5a3841",4,1.116,"Accuracy","Varying","ISI_1000",2.04413044013306,1,"congruent"
"5694e7b5e0c800000b5a3841",1,0.73,"Speed","Varying","ISI_1000",-1.28429871020575,1,"congruent"
"5694e7b5e0c800000b5a3841",2,1.078,"Speed","Varying","ISI_1000",-0.741215724120069,1,"incongruent"
"5694e7b5e0c800000b5a3841",3,0.835,"Speed","Varying","ISI_1000",0.246748940978264,1,"congruent"
"5694e7b5e0c800000b5a3841",4,0.452,"Speed","Varying","ISI_1000",1.05393392714671,1,"incongruent"
"5694e7b5e0c800000b5a3841",1,0.661,"Accuracy","Varying","ISI_1000",-1.28429871020575,1,"congruent"
"5694e7b5e0c800000b5a3841",2,0.822,"Accuracy","Varying","ISI_1000",-0.792548225544605,1,"incongruent"
"5694e7b5e0c800000b5a3841",3,0.619,"Accuracy","Varying","ISI_1000",0.00496541977573556,1,"congruent"
"5694e7b5e0c800000b5a3841",4,1.005,"Accuracy","Varying","ISI_1000",0.651457358006497,1,"incongruent"
"5694e7b5e0c800000b5a3841",5,0.737,"Accuracy","Varying","ISI_1000",1.58511372449626,1,"congruent"
"5694e7b5e0c800000b5a3841",1,1.696,"Speed","Varying","ISI_1000",-1.28429871020575,1,"congruent"
"5694e7b5e0c800000b5a3841",2,1.181,"Speed","Varying","ISI_1000",-0.0225607041765523,1,"incongruent"
"5694e7b5e0c800000b5a3841",3,1.822,"Speed","Varying","ISI_1000",1.04203073841058,1,"incongruent"
"5694e7b5e0c800000b5a3841",4,0.543,"Speed","Varying","ISI_1000",2.5834936797387,1,"congruent"
"5694e7b5e0c800000b5a3841",1,1.252,"Accuracy","Varying","ISI_1000",-1.28429871020575,1,"incongruent"
"5694e7b5e0c800000b5a3841",2,0.824,"Accuracy","Varying","ISI_1000",-0.352874191604007,1,"congruent"
"5694e7b5e0c800000b5a3841",3,1.259,"Accuracy","Varying","ISI_1000",0.44612735230835,1,"incongruent"
"5694e7b5e0c800000b5a3841",4,0.725,"Accuracy","Varying","ISI_1000",1.56874683998409,1,"congruent"
"5694e7b5e0c800000b5a3841",2,0.881,"Speed","Varying","ISI_1000",0.955732620073679,1,"congruent"
"5694e7b5e0c800000b5a3841",1,2.536,"Accuracy","Varying","ISI_1000",-1.28429871020575,1,"incongruent"
"5694e7b5e0c800000b5a3841",2,0.665,"Accuracy","Varying","ISI_1000",0.602356704469984,1,"congruent"
"5694e7b5e0c800000b5a3841",1,1.034,"Speed","Varying","ISI_1000",-1.28429871020575,1,"congruent"
"5694e7b5e0c800000b5a3841",2,2.343,"Speed","Varying","ISI_1000",-0.515055138133703,1,"incongruent"
"5694e7b5e0c800000b5a3841",1,1.649,"Accuracy","Varying","ISI_1000",-1.28429871020575,1,"congruent"
"5694e7b5e0c800000b5a3841",2,1.414,"Accuracy","Varying","ISI_1000",-0.057526321088918,0,"incongruent"
"5694e7b5e0c800000b5a3841",3,0.781,"Accuracy","Varying","ISI_1000",1.18040530746803,1,"congruent"
"5694e7b5e0c800000b5a3841",4,1.1,"Accuracy","Varying","ISI_1000",1.94741703165205,1,"incongruent"
"5694e7b5e0c800000b5a3841",1,1.858,"Speed","Varying","ISI_1000",-1.28429871020575,1,"incongruent"
"5694e7b5e0c800000b5a3841",2,0.629,"Speed","Varying","ISI_1000",0.0979590817767082,1,"congruent"
"5694e7b5e0c800000b5a3841",3,0.809,"Speed","Varying","ISI_1000",0.751890512967547,1,"incongruent"
"5694e7b5e0c800000b5a3841",4,0.97,"Speed","Varying","ISI_1000",1.53973281743979,1,"incongruent"
"5694e7b5e0c800000b5a3841",1,1.068,"Accuracy","Varying","ISI_1000",-1.28429871020575,1,"incongruent"
"5694e7b5e0c800000b5a3841",2,0.571,"Accuracy","Varying","ISI_1000",-0.489760862069439,1,"congruent"
"5694e7b5e0c800000b5a3841",3,0.618,"Accuracy","Varying","ISI_1000",0.121021509952949,1,"congruent"
"5694e7b5e0c800000b5a3841",4,0.77,"Accuracy","Varying","ISI_1000",0.766769498887703,1,"incongruent"
"5694e7b5e0c800000b5a3841",5,0.56,"Accuracy","Varying","ISI_1000",1.52559778081564,1,"incongruent"
"5694e7b5e0c800000b5a3841",1,0.84,"Speed","Varying","ISI_1000",-1.28429871020575,1,"congruent"
"5694e7b5e0c800000b5a3841",2,0.753,"Speed","Varying","ISI_1000",-0.659381301559213,1,"incongruent"
"5694e7b5e0c800000b5a3841",3,0.712,"Speed","Varying","ISI_1000",0.0867998423365914,1,"congruent"
"5694e7b5e0c800000b5a3841",4,0.749,"Speed","Varying","ISI_1000",0.802479065096077,1,"incongruent"
"5694e7b5e0c800000b5a3841",5,0.592,"Speed","Varying","ISI_1000",1.54568441180785,1,"incongruent"
"5694e7b5e0c800000b5a3841",1,0.808,"Accuracy","Varying","ISI_1000",-1.28429871020575,1,"incongruent"
"5694e7b5e0c800000b5a3841",2,0.607,"Accuracy","Varying","ISI_1000",-0.683187679031462,1,"congruent"
"5694e7b5e0c800000b5a3841",3,0.822,"Accuracy","Varying","ISI_1000",-0.0456231323527935,1,"congruent"
"5694e7b5e0c800000b5a3841",1,0.832,"Speed","Varying","ISI_1000",-1.28429871020575,1,"incongruent"
"5694e7b5e0c800000b5a3841",2,0.531,"Speed","Varying","ISI_1000",-0.665332895927275,1,"congruent"
"5694e7b5e0c800000b5a3841",3,0.642,"Speed","Varying","ISI_1000",-0.0843084957451981,1,"congruent"
"5694e7b5e0c800000b5a3841",4,0.428,"Speed","Varying","ISI_1000",0.579294276293742,1,"incongruent"
"5694e7b5e0c800000b5a3841",1,0.676,"Accuracy","Varying","ISI_1000",-1.28429871020575,1,"congruent"
"5694e7b5e0c800000b5a3841",2,0.714,"Accuracy","Varying","ISI_1000",-0.781388986104489,1,"incongruent"
"5694e7b5e0c800000b5a3841",3,0.582,"Accuracy","Varying","ISI_1000",-0.0642218647529881,1,"incongruent"
"5694e7b5e0c800000b5a3841",4,0.933,"Accuracy","Varying","ISI_1000",0.554743949525486,1,"congruent"
"5694e7b5e0c800000b5a3841",5,0.485,"Accuracy","Varying","ISI_1000",1.43483596670269,1,"congruent"
"5694e7b5e0c800000b5a3841",1,0.974,"Speed","Varying","ISI_1000",-1.28429871020575,1,"incongruent"
"5694e7b5e0c800000b5a3841",2,1.079,"Speed","Varying","ISI_1000",-0.55969209589417,1,"congruent"
"5694e7b5e0c800000b5a3841",3,1.471,"Speed","Varying","ISI_1000",0.429016518500171,1,"incongruent"
"5694e7b5e0c800000b5a3841",4,0.518,"Speed","Varying","ISI_1000",1.70935325692956,1,"congruent"
"5694e7b5e0c800000b5a3841",1,2.997,"Accuracy","Varying","ISI_1000",-1.28429871020575,1,"incongruent"
"5694e7b5e0c800000b5a3841",2,0.71,"Accuracy","Varying","ISI_1000",0.94531732992957,1,"congruent"
"5694e7b5e0c800000b5a3841",3,0.702,"Accuracy","Varying","ISI_1000",1.65950865409704,1,"congruent"
"5694e7b5e0c800000b5a3841",1,0.978,"Speed","Varying","ISI_1000",-1.28429871020575,1,"congruent"
"5694e7b5e0c800000b5a3841",2,0.644,"Speed","Varying","ISI_1000",-0.556716298710139,1,"incongruent"
"5694e7b5e0c800000b5a3841",3,1.252,"Speed","Varying","ISI_1000",0.108374371920817,1,"incongruent"
"5694e7b5e0c800000b5a3841",4,1.263,"Speed","Varying","ISI_1000",1.2257862145245,1,"congruent"
"5694e7b5e0c800000b5a3841",5,0.531,"Speed","Varying","ISI_1000",2.35138149938428,1,"congruent"
"5694e7b5e0c800000b5a3841",2,0.662,"Accuracy","Varying","ISI_1000",0.112094118400856,1,"congruent"
"5694e7b5e0c800000b5a3841",3,0.951,"Accuracy","Varying","ISI_1000",0.790575876359952,1,"congruent"
"5694e7b5e0c800000b5a3841",1,2.485,"Accuracy","Varying","ISI_1000",-1.28429871020575,1,"incongruent"
"5694e7b5e0c800000b5a3841",2,0.595,"Accuracy","Varying","ISI_1000",0.564415290373587,1,"congruent"
"5694e7b5e0c800000b5a3841",1,0.549,"Speed","Varying","ISI_1000",-1.28429871020575,1,"incongruent"
"5694e7b5e0c800000b5a3841",2,0.876,"Speed","Varying","ISI_1000",-0.875870546697477,1,"congruent"
"5694e7b5e0c800000b5a3841",3,0.661,"Speed","Varying","ISI_1000",-0.0381836393927157,1,"congruent"
"5694e7b5e0c800000b5a3841",1,1.607,"Accuracy","Fixed","ISI_250",-1.28429871020575,1,"congruent"
"5694e7b5e0c800000b5a3841",2,0.638,"Accuracy","Fixed","ISI_250",-0.0887721915212448,1,"incongruent"
"5694e7b5e0c800000b5a3841",3,0.584,"Accuracy","Fixed","ISI_250",0.571854783333664,1,"congruent"
"5694e7b5e0c800000b5a3841",4,0.84,"Accuracy","Fixed","ISI_250",1.19230849620415,1,"incongruent"
"5694e7b5e0c800000b5a3841",1,0.963,"Accuracy","Fixed","ISI_250",-1.28429871020575,1,"incongruent"
"5694e7b5e0c800000b5a3841",2,0.672,"Accuracy","Fixed","ISI_250",-0.567875538150256,1,"congruent"
"5694e7b5e0c800000b5a3841",3,0.54,"Accuracy","Fixed","ISI_250",0.118045712768918,1,"congruent"
"5694e7b5e0c800000b5a3841",4,0.712,"Accuracy","Fixed","ISI_250",0.705765656615065,1,"incongruent"
"5694e7b5e0c800000b5a3841",1,1.202,"Accuracy","Fixed","ISI_250",-1.28429871020575,1,"congruent"
"5694e7b5e0c800000b5a3841",2,1.091,"Accuracy","Fixed","ISI_250",-0.390071656404396,1,"incongruent"
"5694e7b5e0c800000b5a3841",3,0.528,"Accuracy","Fixed","ISI_250",0.607564349542038,1,"congruent"
"5694e7b5e0c800000b5a3841",4,0.625,"Accuracy","Fixed","ISI_250",1.18635690183609,1,"incongruent"
"5694e7b5e0c800000b5a3841",2,0.549,"Accuracy","Fixed","ISI_250",0.219966766321984,1,"incongruent"
"5694e7b5e0c800000b5a3841",3,1.135,"Accuracy","Fixed","ISI_250",0.814382253832201,1,"congruent"
"5694e7b5e0c800000b5a3841",1,1.559,"Accuracy","Fixed","ISI_250",-1.28429871020575,1,"incongruent"
"5694e7b5e0c800000b5a3841",2,0.793,"Accuracy","Fixed","ISI_250",-0.124481757729618,1,"congruent"
"5694e7b5e0c800000b5a3841",3,0.659,"Accuracy","Fixed","ISI_250",0.651457358006497,1,"congruent"
"5694e7b5e0c800000b5a3841",1,1.908,"Accuracy","Fixed","ISI_250",-1.28429871020575,1,"congruent"
"5694e7b5e0c800000b5a3841",2,0.602,"Accuracy","Fixed","ISI_250",0.135156546577097,1,"incongruent"
"5694e7b5e0c800000b5a3841",1,0.895,"Accuracy","Fixed","ISI_250",-1.28429871020575,1,"congruent"
"5694e7b5e0c800000b5a3841",2,0.726,"Accuracy","Fixed","ISI_250",-0.618464090278785,1,"incongruent"
"5694e7b5e0c800000b5a3841",3,0.572,"Accuracy","Fixed","ISI_250",0.107630422624809,1,"incongruent"
"5694e7b5e0c800000b5a3841",4,0.666,"Accuracy","Fixed","ISI_250",0.719156743943205,1,"congruent"
"5694e7b5e0c800000b5a3841",1,1.226,"Accuracy","Fixed","ISI_250",-1.28429871020575,1,"congruent"
"5694e7b5e0c800000b5a3841",2,0.563,"Accuracy","Fixed","ISI_250",-0.372216873300209,1,"incongruent"
"5694e7b5e0c800000b5a3841",3,0.957,"Accuracy","Fixed","ISI_250",0.232613904354116,1,"incongruent"
"5694e7b5e0c800000b5a3841",1,1.002,"Accuracy","Fixed","ISI_250",-1.28429871020575,1,"incongruent"
"5694e7b5e0c800000b5a3841",2,1.273,"Accuracy","Fixed","ISI_250",-0.538861515605952,1,"congruent"
"5694e7b5e0c800000b5a3841",3,0.395,"Accuracy","Fixed","ISI_250",0.594173262213898,1,"congruent"
"5694e7b5e0c800000b5a3841",4,0.812,"Accuracy","Fixed","ISI_250",1.07402055813892,1,"incongruent"
"5694e7b5e0c800000b5a3841",5,0.786,"Accuracy","Fixed","ISI_250",1.86409471049918,1,"incongruent"
"5694e7b5e0c800000b5a3841",1,0.791,"Accuracy","Fixed","ISI_250",-1.28429871020575,1,"congruent"
"5694e7b5e0c800000b5a3841",2,0.987,"Accuracy","Fixed","ISI_250",-0.695834817063594,1,"incongruent"
"5694e7b5e0c800000b5a3841",3,0.544,"Accuracy","Fixed","ISI_250",0.224430462098031,1,"congruent"
"5694e7b5e0c800000b5a3841",4,0.663,"Accuracy","Fixed","ISI_250",0.815126203128209,1,"incongruent"
"5694e7b5e0c800000b5a3841",5,0.633,"Accuracy","Fixed","ISI_250",1.49435191038331,1,"congruent"
"5694e7b5e0c800000b5a3841",1,0.607,"Accuracy","Fixed","ISI_250",-1.28429871020575,1,"incongruent"
"5694e7b5e0c800000b5a3841",2,0.736,"Accuracy","Fixed","ISI_250",-0.832721487529026,1,"congruent"
"5694e7b5e0c800000b5a3841",3,1.01,"Accuracy","Fixed","ISI_250",-0.0991874816653538,1,"congruent"
"5694e7b5e0c800000b5a3841",1,1.409,"Accuracy","Fixed","ISI_250",-1.28429871020575,1,"incongruent"
"5694e7b5e0c800000b5a3841",2,0.642,"Accuracy","Fixed","ISI_250",-0.236074152130785,1,"congruent"
"5694e7b5e0c800000b5a3841",3,0.481,"Accuracy","Fixed","ISI_250",0.427528619908155,1,"congruent"
"5694e7b5e0c800000b5a3841",4,0.865,"Accuracy","Fixed","ISI_250",0.971355555289843,0,"incongruent"
"5694e7b5e0c800000b5a3841",5,0.727,"Accuracy","Fixed","ISI_250",1.80085902033852,1,"congruent"
"5694e7b5e0c800000b5a3841",1,2.729,"Accuracy","Fixed","ISI_250",-1.28429871020575,1,"incongruent"
"5694e7b5e0c800000b5a3841",2,0.733,"Accuracy","Fixed","ISI_250",0.745938918599485,1,"congruent"
"5694e7b5e0c800000b5a3841",3,0.579,"Accuracy","Fixed","ISI_250",1.47724107657513,1,"congruent"
"5694e7b5e0c800000b5a3841",4,0.515,"Accuracy","Fixed","ISI_250",2.09397504296558,1,"incongruent"
"5694e7b5e0c800000b5a3841",1,1.108,"Accuracy","Fixed","ISI_250",-1.28429871020575,1,"congruent"
"5694e7b5e0c800000b5a3841",2,0.617,"Accuracy","Fixed","ISI_250",-0.460002890229127,1,"incongruent"
"5694e7b5e0c800000b5a3841",3,0.806,"Accuracy","Fixed","ISI_250",0.185001149409619,1,"incongruent"
"5694e7b5e0c800000b5a3841",4,0.683,"Accuracy","Fixed","ISI_250",0.970611605993835,1,"congruent"
"5694e7b5e0c800000b5a3841",5,0.742,"Accuracy","Fixed","ISI_250",1.66471629916909,1,"incongruent"
"5694e7b5e0c800000b5a3841",1,0.831,"Accuracy","Fixed","ISI_250",-1.28429871020575,1,"congruent"
"5694e7b5e0c800000b5a3841",2,0.946,"Accuracy","Fixed","ISI_250",-0.666076845223283,1,"incongruent"
"5694e7b5e0c800000b5a3841",3,0.502,"Accuracy","Fixed","ISI_250",0.223686512802023,1,"congruent"
"5694e7b5e0c800000b5a3841",4,0.487,"Accuracy","Fixed","ISI_250",0.783136383399874,1,"incongruent"
"5694e7b5e0c800000b5a3841",5,0.734,"Accuracy","Fixed","ISI_250",1.33142701455761,1,"incongruent"
"5694e7b5e0c800000b5a3841",2,1.283,"Accuracy","Fixed","ISI_250",-0.396767200068466,1,"incongruent"
"5694e7b5e0c800000b5a3841",3,0.588,"Accuracy","Fixed","ISI_250",0.743707070711462,1,"congruent"
"5694e7b5e0c800000b5a3841",4,0.781,"Accuracy","Fixed","ISI_250",1.36713658076598,1,"incongruent"
"5694e7b5e0c800000b5a3841",1,0.626,"Accuracy","Fixed","ISI_250",-1.28429871020575,1,"congruent"
"5694e7b5e0c800000b5a3841",2,0.768,"Accuracy","Fixed","ISI_250",-0.818586450904878,1,"incongruent"
"5694e7b5e0c800000b5a3841",3,0.791,"Accuracy","Fixed","ISI_250",-0.0612460675689569,1,"congruent"
"5694e7b5e0c800000b5a3841",4,0.674,"Accuracy","Fixed","ISI_250",0.713205149575143,1,"incongruent"
"5694e7b5e0c800000b5a3841",5,0.853,"Accuracy","Fixed","ISI_250",1.40061429908633,1,"congruent"
"5694e7b5e0c800000b5a3841",1,0.846,"Accuracy","Fixed","ISI_250",-1.28429871020575,1,"incongruent"
"5694e7b5e0c800000b5a3841",2,0.621,"Accuracy","Fixed","ISI_250",-0.654917605783166,1,"congruent"
"5694e7b5e0c800000b5a3841",3,0.649,"Accuracy","Fixed","ISI_250",-0.00693776896038893,1,"congruent"
"5694e7b5e0c800000b5a3841",4,0.585,"Accuracy","Fixed","ISI_250",0.661872648150606,1,"incongruent"
"5694e7b5e0c800000b5a3841",1,1.773,"Speed","Fixed","ISI_250",-1.28429871020575,1,"congruent"
"5694e7b5e0c800000b5a3841",2,0.885,"Speed","Fixed","ISI_250",0.0347233916160468,1,"incongruent"
"5694e7b5e0c800000b5a3841",4,0.925,"Speed","Fixed","ISI_250",1.51071879489548,1,"incongruent"
"5694e7b5e0c800000b5a3841",1,0.604,"Speed","Fixed","ISI_250",-1.28429871020575,1,"congruent"
"5694e7b5e0c800000b5a3841",2,1.196,"Speed","Fixed","ISI_250",-0.834953335417049,1,"incongruent"
"5694e7b5e0c800000b5a3841",3,1.409,"Speed","Fixed","ISI_250",0.240797346610202,1,"congruent"
"5694e7b5e0c800000b5a3841",4,0.598,"Speed","Fixed","ISI_250",1.47500922868711,1,"incongruent"
"5694e7b5e0c800000b5a3841",1,0.966,"Speed","Fixed","ISI_250",-1.28429871020575,1,"congruent"
"5694e7b5e0c800000b5a3841",2,0.791,"Speed","Fixed","ISI_250",-0.565643690262232,1,"incongruent"
"5694e7b5e0c800000b5a3841",3,1.305,"Speed","Fixed","ISI_250",0.208807526881867,1,"congruent"
"5694e7b5e0c800000b5a3841",4,0.737,"Speed","Fixed","ISI_250",1.36564868217397,1,"incongruent"
"5694e7b5e0c800000b5a3841",1,0.909,"Speed","Fixed","ISI_250",-1.28429871020575,1,"congruent"
"5694e7b5e0c800000b5a3841",2,2.162,"Speed","Fixed","ISI_250",-0.608048800134676,1,"incongruent"
"5694e7b5e0c800000b5a3841",3,0.633,"Speed","Fixed","ISI_250",1.18635690183609,1,"congruent"
"5694e7b5e0c800000b5a3841",4,0.623,"Speed","Fixed","ISI_250",1.84326413021096,1,"incongruent"
"5694e7b5e0c800000b5a3841",1,2.305,"Speed","Fixed","ISI_250",-1.28429871020575,1,"incongruent"
"5694e7b5e0c800000b5a3841",2,0.915,"Speed","Fixed","ISI_250",0.430504417092186,1,"congruent"
"5694e7b5e0c800000b5a3841",1,0.764,"Speed","Fixed","ISI_250",-1.28429871020575,1,"incongruent"
"5694e7b5e0c800000b5a3841",2,1.075,"Speed","Fixed","ISI_250",-0.715921448055804,1,"congruent"
"5694e7b5e0c800000b5a3841",3,0.542,"Speed","Fixed","ISI_250",0.269811369154505,1,"congruent"
"5694e7b5e0c800000b5a3841",4,0.586,"Speed","Fixed","ISI_250",0.859019211592668,1,"incongruent"
"5694e7b5e0c800000b5a3841",2,0.655,"Speed","Fixed","ISI_250",0.917047256681275,1,"congruent"
"5694e7b5e0c800000b5a3841",1,0.791,"Speed","Fixed","ISI_250",-1.28429871020575,1,"congruent"
"5694e7b5e0c800000b5a3841",2,1.017,"Speed","Fixed","ISI_250",-0.695834817063594,1,"incongruent"
"5694e7b5e0c800000b5a3841",3,0.596,"Speed","Fixed","ISI_250",0.246748940978264,1,"congruent"
"5694e7b5e0c800000b5a3841",4,1.191,"Speed","Fixed","ISI_250",0.876130045400847,1,"incongruent"
"5694e7b5e0c800000b5a3841",5,1.087,"Speed","Fixed","ISI_250",1.94816098094806,1,"congruent"
"5694e7b5e0c800000b5a3841",1,2.962,"Speed","Fixed","ISI_250",-1.28429871020575,1,"incongruent"
"5694e7b5e0c800000b5a3841",2,0.668,"Speed","Fixed","ISI_250",0.919279104569298,1,"congruent"
"5694e7b5e0c800000b5a3841",3,0.723,"Speed","Fixed","ISI_250",1.60222455830444,1,"congruent"
"5694e7b5e0c800000b5a3841",4,0.739,"Speed","Fixed","ISI_250",2.32608722332001,1,"incongruent"
"5694e7b5e0c800000b5a3841",1,0.713,"Speed","Fixed","ISI_250",-1.28429871020575,1,"incongruent"
"5694e7b5e0c800000b5a3841",2,0.572,"Speed","Fixed","ISI_250",-0.753862862152201,1,"congruent"
"5694e7b5e0c800000b5a3841",3,0.795,"Speed","Fixed","ISI_250",-0.142336540833805,1,"incongruent"
"5694e7b5e0c800000b5a3841",4,0.678,"Speed","Fixed","ISI_250",0.635090473494326,1,"congruent"
"5694e7b5e0c800000b5a3841",1,1.061,"Speed","Fixed","ISI_250",-1.28429871020575,1,"congruent"
"5694e7b5e0c800000b5a3841",2,0.688,"Speed","Fixed","ISI_250",-0.494968507141493,1,"incongruent"
"5694e7b5e0c800000b5a3841",3,0.537,"Speed","Fixed","ISI_250",0.202855932513805,1,"congruent"
"5694e7b5e0c800000b5a3841",4,0.814,"Speed","Fixed","ISI_250",0.788344028471929,1,"incongruent"
"5694e7b5e0c800000b5a3841",5,0.587,"Speed","Fixed","ISI_250",1.57990607942421,1,"incongruent"
"5694e7b5e0c800000b5a3841",1,0.937,"Speed","Fixed","ISI_250",-1.28429871020575,1,"congruent"
"5694e7b5e0c800000b5a3841",2,0.713,"Speed","Fixed","ISI_250",-0.587218219846458,1,"incongruent"
"5694e7b5e0c800000b5a3841",3,0.601,"Speed","Fixed","ISI_250",0.129204952209035,1,"incongruent"
"5694e7b5e0c800000b5a3841",4,0.649,"Speed","Fixed","ISI_250",0.762305803111656,1,"congruent"
"5694e7b5e0c800000b5a3841",5,0.486,"Speed","Fixed","ISI_250",1.43111622022265,1,"congruent"
"5694e7b5e0c800000b5a3841",6,0.672,"Speed","Fixed","ISI_250",1.97866290208438,1,"incongruent"
"5694e7b5e0c800000b5a3841",1,0.839,"Speed","Fixed","ISI_250",-1.28429871020575,1,"congruent"
"5694e7b5e0c800000b5a3841",2,0.929,"Speed","Fixed","ISI_250",-0.66012525085522,1,"incongruent"
"5694e7b5e0c800000b5a3841",3,0.603,"Speed","Fixed","ISI_250",0.216990969137953,1,"congruent"
"5694e7b5e0c800000b5a3841",4,0.804,"Speed","Fixed","ISI_250",0.85157971863259,1,"incongruent"
"5694e7b5e0c800000b5a3841",1,0.716,"Speed","Fixed","ISI_250",-1.28429871020575,1,"congruent"
"5694e7b5e0c800000b5a3841",2,0.641,"Speed","Fixed","ISI_250",-0.751631014264177,1,"incongruent"
"5694e7b5e0c800000b5a3841",3,0.451,"Speed","Fixed","ISI_250",-0.0887721915212448,1,"incongruent"
"5694e7b5e0c800000b5a3841",4,0.7,"Speed","Fixed","ISI_250",0.43273626498021,1,"congruent"
"5694e7b5e0c800000b5a3841",2,1.019,"Speed","Fixed","ISI_250",-0.868431053737399,1,"incongruent"
"5694e7b5e0c800000b5a3841",3,0.62,"Speed","Fixed","ISI_250",0.0756406028964747,1,"incongruent"
"5694e7b5e0c800000b5a3841",4,0.562,"Speed","Fixed","ISI_250",0.722876490423244,1,"incongruent"
"5694e7b5e0c800000b5a3841",5,0.904,"Speed","Fixed","ISI_250",1.32696331878156,1,"congruent"
"5694e7b5e0c800000b5a3841",6,0.59,"Speed","Fixed","ISI_250",2.18548080637454,1,"congruent"
"5694e7b5e0c800000b5a3841",2,1.365,"Speed","Fixed","ISI_250",1.46905763431905,1,"incongruent"
"5694e7b5e0c800000b5a3841",1,0.768,"Speed","Fixed","ISI_250",-1.28429871020575,1,"incongruent"
"5694e7b5e0c800000b5a3841",2,0.648,"Speed","Fixed","ISI_250",-0.712945650871773,1,"congruent"
"5694e7b5e0c800000b5a3841",3,1.236,"Speed","Fixed","ISI_250",-0.0448791830567858,1,"congruent"
"5694e7b5e0c800000b5a3841",1,0.889,"Speed","Fixed","ISI_250",-1.28429871020575,1,"incongruent"
"5694e7b5e0c800000b5a3841",3,0.686,"Speed","Fixed","ISI_250",-0.144568388721828,1,"congruent"
"5694e7b5e0c800000b5a3841",4,0.972,"Speed","Fixed","ISI_250",0.551768152341454,1,"incongruent"
"5694e7b5e0c800000b5a3841",5,0.84,"Speed","Fixed","ISI_250",1.46087419206296,1,"congruent"
"5694e7b5e0c800000b5a3841",1,1.517,"Accuracy","Fixed","ISI_1000",-1.28429871020575,1,"incongruent"
"5694e7b5e0c800000b5a3841",2,2.104,"Accuracy","Fixed","ISI_1000",-0.155727628161945,1,"congruent"
"5694e7b5e0c800000b5a3841",1,0.851,"Accuracy","Fixed","ISI_1000",-1.28429871020575,1,"congruent"
"5694e7b5e0c800000b5a3841",2,0.946,"Accuracy","Fixed","ISI_1000",-0.651197859303127,1,"incongruent"
"5694e7b5e0c800000b5a3841",3,0.692,"Accuracy","Fixed","ISI_1000",0.238565498722179,1,"incongruent"
"5694e7b5e0c800000b5a3841",4,0.705,"Accuracy","Fixed","ISI_1000",0.939365735561508,1,"incongruent"
"5694e7b5e0c800000b5a3841",5,0.48,"Accuracy","Fixed","ISI_1000",1.64983731324894,1,"congruent"
"5694e7b5e0c800000b5a3841",1,0.821,"Accuracy","Fixed","ISI_1000",-1.28429871020575,1,"congruent"
"5694e7b5e0c800000b5a3841",2,0.692,"Accuracy","Fixed","ISI_1000",-0.673516338183361,1,"incongruent"
"5694e7b5e0c800000b5a3841",3,0.518,"Accuracy","Fixed","ISI_1000",0.027283898655969,1,"congruent"
"5694e7b5e0c800000b5a3841",4,0.699,"Accuracy","Fixed","ISI_1000",0.598636957989945,1,"incongruent"
"5694e7b5e0c800000b5a3841",5,0.871,"Accuracy","Fixed","ISI_1000",1.30464483990133,1,"congruent"
"5694e7b5e0c800000b5a3841",6,0.711,"Accuracy","Fixed","ISI_1000",2.13861200072605,1,"incongruent"
"5694e7b5e0c800000b5a3841",1,0.924,"Accuracy","Fixed","ISI_1000",-1.28429871020575,1,"congruent"
"5694e7b5e0c800000b5a3841",2,1.205,"Accuracy","Fixed","ISI_1000",-0.596889560694559,1,"incongruent"
"5694e7b5e0c800000b5a3841",3,0.962,"Accuracy","Fixed","ISI_1000",0.485556664996762,1,"incongruent"
"5694e7b5e0c800000b5a3841",4,0.903,"Accuracy","Fixed","ISI_1000",1.38722321175819,1,"incongruent"
"5694e7b5e0c800000b5a3841",1,1.266,"Accuracy","Fixed","ISI_1000",-1.28429871020575,1,"congruent"
"5694e7b5e0c800000b5a3841",2,0.606,"Accuracy","Fixed","ISI_1000",-0.342458901459898,1,"incongruent"
"5694e7b5e0c800000b5a3841",3,0.589,"Accuracy","Fixed","ISI_1000",0.294361695922762,1,"incongruent"
"5694e7b5e0c800000b5a3841",4,0.679,"Accuracy","Fixed","ISI_1000",0.91853515527329,1,"congruent"
"5694e7b5e0c800000b5a3841",1,1.451,"Accuracy","Fixed","ISI_1000",-1.28429871020575,1,"incongruent"
"5694e7b5e0c800000b5a3841",2,0.609,"Accuracy","Fixed","ISI_1000",-0.204828281698459,1,"congruent"
"5694e7b5e0c800000b5a3841",3,0.555,"Accuracy","Fixed","ISI_1000",0.434224163572225,1,"congruent"
"5694e7b5e0c800000b5a3841",4,0.745,"Accuracy","Fixed","ISI_1000",1.03310334685849,1,"incongruent"
"5694e7b5e0c800000b5a3841",5,0.691,"Accuracy","Fixed","ISI_1000",1.77333289638623,1,"congruent"
"5694e7b5e0c800000b5a3841",1,0.815,"Accuracy","Fixed","ISI_1000",-1.28429871020575,1,"congruent"
"5694e7b5e0c800000b5a3841",2,0.636,"Accuracy","Fixed","ISI_1000",-0.677980033959407,1,"incongruent"
"5694e7b5e0c800000b5a3841",3,0.622,"Accuracy","Fixed","ISI_1000",-0.0188409576965134,1,"congruent"
"5694e7b5e0c800000b5a3841",4,0.626,"Accuracy","Fixed","ISI_1000",0.629882828422271,1,"incongruent"
"5694e7b5e0c800000b5a3841",1,0.628,"Accuracy","Fixed","ISI_1000",-1.28429871020575,1,"congruent"
"5694e7b5e0c800000b5a3841",2,0.577,"Accuracy","Fixed","ISI_1000",-0.817098552312862,1,"incongruent"
"5694e7b5e0c800000b5a3841",3,0.533,"Accuracy","Fixed","ISI_1000",-0.201852484514427,1,"congruent"
"5694e7b5e0c800000b5a3841",4,0.517,"Accuracy","Fixed","ISI_1000",0.380659814259665,1,"incongruent"
"5694e7b5e0c800000b5a3841",5,0.698,"Accuracy","Fixed","ISI_1000",0.951268924297633,1,"incongruent"
"5694e7b5e0c800000b5a3841",1,0.722,"Accuracy","Fixed","ISI_1000",-1.28429871020575,1,"incongruent"
"5694e7b5e0c800000b5a3841",2,0.74,"Accuracy","Fixed","ISI_1000",-0.747167318488131,1,"congruent"
"5694e7b5e0c800000b5a3841",3,0.66,"Accuracy","Fixed","ISI_1000",-0.0106575154404278,1,"incongruent"
"5694e7b5e0c800000b5a3841",4,0.614,"Accuracy","Fixed","ISI_1000",0.666336343926653,1,"incongruent"
"5694e7b5e0c800000b5a3841",1,0.697,"Accuracy","Fixed","ISI_1000",-1.28429871020575,1,"incongruent"
"5694e7b5e0c800000b5a3841",2,1.021,"Accuracy","Fixed","ISI_1000",-0.765766050888325,1,"congruent"
"5694e7b5e0c800000b5a3841",3,0.719,"Accuracy","Fixed","ISI_1000",0.179793504337564,1,"congruent"
"5694e7b5e0c800000b5a3841",4,0.657,"Accuracy","Fixed","ISI_1000",0.900680372169104,1,"incongruent"
"5694e7b5e0c800000b5a3841",1,2.288,"Accuracy","Fixed","ISI_1000",-1.28429871020575,1,"incongruent"
"5694e7b5e0c800000b5a3841",2,0.646,"Accuracy","Fixed","ISI_1000",0.417857279060054,1,"congruent"
"5694e7b5e0c800000b5a3841",3,0.635,"Accuracy","Fixed","ISI_1000",1.08443584828303,1,"incongruent"
"5694e7b5e0c800000b5a3841",4,0.523,"Accuracy","Fixed","ISI_1000",1.74283097524991,0,"incongruent"
"5694e7b5e0c800000b5a3841",1,1.423,"Accuracy","Fixed","ISI_1000",-1.28429871020575,1,"congruent"
"5694e7b5e0c800000b5a3841",2,0.495,"Accuracy","Fixed","ISI_1000",-0.225658861986676,1,"incongruent"
"5694e7b5e0c800000b5a3841",3,0.64,"Accuracy","Fixed","ISI_1000",0.32858336353912,1,"incongruent"
"5694e7b5e0c800000b5a3841",4,0.63,"Accuracy","Fixed","ISI_1000",0.990698236986045,1,"incongruent"
"5694e7b5e0c800000b5a3841",1,1.434,"Accuracy","Fixed","ISI_1000",-1.28429871020575,1,"congruent"
"5694e7b5e0c800000b5a3841",2,0.705,"Accuracy","Fixed","ISI_1000",-0.217475419730591,1,"incongruent"
"5694e7b5e0c800000b5a3841",3,0.433,"Accuracy","Fixed","ISI_1000",0.49299615795684,1,"incongruent"
"5694e7b5e0c800000b5a3841",4,0.736,"Accuracy","Fixed","ISI_1000",1.00111352713015,1,"incongruent"
"5694e7b5e0c800000b5a3841",1,0.854,"Accuracy","Fixed","ISI_1000",-1.28429871020575,1,"congruent"
"5694e7b5e0c800000b5a3841",2,0.672,"Accuracy","Fixed","ISI_1000",-0.648966011415104,1,"incongruent"
"5694e7b5e0c800000b5a3841",3,0.671,"Accuracy","Fixed","ISI_1000",0.0369552395040701,1,"incongruent"
"5694e7b5e0c800000b5a3841",1,1.081,"Accuracy","Fixed","ISI_1000",-1.28429871020575,1,"incongruent"
"5694e7b5e0c800000b5a3841",2,0.644,"Accuracy","Fixed","ISI_1000",-0.480089521221338,1,"congruent"
"5694e7b5e0c800000b5a3841",3,0.789,"Accuracy","Fixed","ISI_1000",0.185001149409619,1,"incongruent"
"5694e7b5e0c800000b5a3841",5,0.498,"Accuracy","Fixed","ISI_1000",1.85367942035507,1,"congruent"
"5694e7b5e0c800000b5a3841",1,0.713,"Accuracy","Fixed","ISI_1000",-1.28429871020575,1,"incongruent"
"5694e7b5e0c800000b5a3841",2,0.622,"Accuracy","Fixed","ISI_1000",-0.753862862152201,1,"congruent"
"5694e7b5e0c800000b5a3841",3,0.806,"Accuracy","Fixed","ISI_1000",-0.105139076033416,1,"congruent"
"5694e7b5e0c800000b5a3841",4,0.797,"Accuracy","Fixed","ISI_1000",0.6804713805508,1,"incongruent"
"5694e7b5e0c800000b5a3841",5,0.63,"Accuracy","Fixed","ISI_1000",1.45938629347095,1,"incongruent"
"5694e7b5e0c800000b5a3841",1,1.317,"Accuracy","Fixed","ISI_1000",-1.28429871020575,1,"congruent"
"5694e7b5e0c800000b5a3841",2,1.142,"Accuracy","Fixed","ISI_1000",-0.304517487363501,1,"incongruent"
"5694e7b5e0c800000b5a3841",3,1.051,"Accuracy","Fixed","ISI_1000",0.73105993267933,1,"congruent"
"5694e7b5e0c800000b5a3841",4,1.218,"Accuracy","Fixed","ISI_1000",1.69893796678545,1,"incongruent"
"5694e7b5e0c800000b5a3841",1,1.969,"Accuracy","Fixed","ISI_1000",-1.28429871020575,1,"incongruent"
"5694e7b5e0c800000b5a3841",2,0.85,"Accuracy","Fixed","ISI_1000",0.180537453633572,1,"congruent"
"5694e7b5e0c800000b5a3841",3,1.373,"Accuracy","Fixed","ISI_1000",0.998881679242131,1,"incongruent"
"5694e7b5e0c800000b5a3841",1,1.125,"Speed","Fixed","ISI_1000",-1.28429871020575,1,"incongruent"
"5694e7b5e0c800000b5a3841",2,0.806,"Speed","Fixed","ISI_1000",-0.447355752196995,1,"congruent"
"5694e7b5e0c800000b5a3841",3,0.854,"Speed","Fixed","ISI_1000",0.338254704387221,1,"congruent"
"5694e7b5e0c800000b5a3841",1,0.879,"Speed","Fixed","ISI_1000",-1.28429871020575,1,"incongruent"
"5694e7b5e0c800000b5a3841",2,0.658,"Speed","Fixed","ISI_1000",-0.630367279014909,1,"congruent"
"5694e7b5e0c800000b5a3841",3,0.613,"Speed","Fixed","ISI_1000",0.0451386817601557,1,"incongruent"
"5694e7b5e0c800000b5a3841",4,1.325,"Speed","Fixed","ISI_1000",0.687166924214871,1,"incongruent"
"5694e7b5e0c800000b5a3841",1,1.038,"Speed","Fixed","ISI_1000",-1.28429871020575,1,"congruent"
"5694e7b5e0c800000b5a3841",2,0.854,"Speed","Fixed","ISI_1000",-0.512079340949672,1,"incongruent"
"5694e7b5e0c800000b5a3841",3,0.671,"Speed","Fixed","ISI_1000",0.309240681842918,1,"incongruent"
"5694e7b5e0c800000b5a3841",4,0.72,"Speed","Fixed","ISI_1000",0.994417983466084,1,"incongruent"
"5694e7b5e0c800000b5a3841",5,0.636,"Speed","Fixed","ISI_1000",1.71604880059363,1,"congruent"
"5694e7b5e0c800000b5a3841",1,1.639,"Speed","Fixed","ISI_1000",-1.28429871020575,1,"incongruent"
"5694e7b5e0c800000b5a3841",2,0.632,"Speed","Fixed","ISI_1000",-0.0649658140489958,1,"congruent"
"5694e7b5e0c800000b5a3841",3,0.731,"Speed","Fixed","ISI_1000",0.591197465029867,1,"incongruent"
"5694e7b5e0c800000b5a3841",4,0.742,"Speed","Fixed","ISI_1000",1.3210117244135,1,"incongruent"
"5694e7b5e0c800000b5a3841",5,0.819,"Speed","Fixed","ISI_1000",2.05900942605322,1,"congruent"
"5694e7b5e0c800000b5a3841",1,0.667,"Speed","Fixed","ISI_1000",-1.28429871020575,1,"incongruent"
"5694e7b5e0c800000b5a3841",2,0.584,"Speed","Fixed","ISI_1000",-0.788084529768559,1,"congruent"
"5694e7b5e0c800000b5a3841",3,0.984,"Speed","Fixed","ISI_1000",-0.16763081689807,1,"congruent"
"5694e7b5e0c800000b5a3841",4,0.856,"Speed","Fixed","ISI_1000",0.750402614375532,1,"incongruent"
"5694e7b5e0c800000b5a3841",1,0.592,"Speed","Fixed","ISI_1000",-1.28429871020575,1,"incongruent"
"5694e7b5e0c800000b5a3841",2,1.004,"Speed","Fixed","ISI_1000",-0.843880726969142,1,"congruent"
"5694e7b5e0c800000b5a3841",3,0.525,"Speed","Fixed","ISI_1000",0.0890316902246148,1,"congruent"
"5694e7b5e0c800000b5a3841",4,0.576,"Speed","Fixed","ISI_1000",0.665592394630645,1,"incongruent"
"5694e7b5e0c800000b5a3841",6,0.72,"Speed","Fixed","ISI_1000",1.87822974712333,1,"incongruent"
"5694e7b5e0c800000b5a3841",1,0.944,"Speed","Fixed","ISI_1000",-1.28429871020575,1,"incongruent"
"5694e7b5e0c800000b5a3841",2,1.099,"Speed","Fixed","ISI_1000",-0.582010574774403,1,"congruent"
"5694e7b5e0c800000b5a3841",3,0.718,"Speed","Fixed","ISI_1000",0.421577025540093,1,"congruent"
"5694e7b5e0c800000b5a3841",4,0.859,"Speed","Fixed","ISI_1000",1.14171994407562,1,"incongruent"
"5694e7b5e0c800000b5a3841",1,1.059,"Speed","Fixed","ISI_1000",-1.28429871020575,1,"incongruent"
"5694e7b5e0c800000b5a3841",2,0.826,"Speed","Fixed","ISI_1000",-0.496456405733509,1,"congruent"
"5694e7b5e0c800000b5a3841",3,0.62,"Speed","Fixed","ISI_1000",0.304033036770863,1,"congruent"
"5694e7b5e0c800000b5a3841",4,0.925,"Speed","Fixed","ISI_1000",0.951268924297633,1,"incongruent"
"5694e7b5e0c800000b5a3841",1,0.92,"Speed","Fixed","ISI_1000",-1.28429871020575,1,"congruent"
"5694e7b5e0c800000b5a3841",2,0.716,"Speed","Fixed","ISI_1000",-0.59986535787859,1,"incongruent"
"5694e7b5e0c800000b5a3841",3,1.252,"Speed","Fixed","ISI_1000",0.118789662064926,1,"incongruent"
"5694e7b5e0c800000b5a3841",4,0.518,"Speed","Fixed","ISI_1000",1.23620150466861,1,"incongruent"
"5694e7b5e0c800000b5a3841",1,0.839,"Speed","Fixed","ISI_1000",-1.28429871020575,1,"congruent"
"5694e7b5e0c800000b5a3841",2,0.755,"Speed","Fixed","ISI_1000",-0.66012525085522,1,"incongruent"
"5694e7b5e0c800000b5a3841",3,0.921,"Speed","Fixed","ISI_1000",0.0875437916325992,1,"incongruent"
"5694e7b5e0c800000b5a3841",5,0.61,"Speed","Fixed","ISI_1000",1.52634173011165,1,"incongruent"
"5694e7b5e0c800000b5a3841",1,0.881,"Speed","Fixed","ISI_1000",-1.28429871020575,1,"congruent"
"5694e7b5e0c800000b5a3841",2,0.798,"Speed","Fixed","ISI_1000",-0.628879380422894,1,"incongruent"
"5694e7b5e0c800000b5a3841",3,0.818,"Speed","Fixed","ISI_1000",0.150779481793261,1,"congruent"
"5694e7b5e0c800000b5a3841",4,0.741,"Speed","Fixed","ISI_1000",0.94531732992957,1,"incongruent"
"5694e7b5e0c800000b5a3841",1,0.975,"Speed","Fixed","ISI_1000",-1.28429871020575,1,"congruent"
"5694e7b5e0c800000b5a3841",2,0.75,"Speed","Fixed","ISI_1000",-0.558948146598162,1,"incongruent"
"5694e7b5e0c800000b5a3841",3,0.611,"Speed","Fixed","ISI_1000",0.185001149409619,1,"incongruent"
"5694e7b5e0c800000b5a3841",4,0.547,"Speed","Fixed","ISI_1000",0.825541493272318,1,"incongruent"
"5694e7b5e0c800000b5a3841",1,0.797,"Speed","Fixed","ISI_1000",-1.28429871020575,1,"incongruent"
"5694e7b5e0c800000b5a3841",2,0.811,"Speed","Fixed","ISI_1000",-0.691371121287547,1,"congruent"
"5694e7b5e0c800000b5a3841",3,0.907,"Speed","Fixed","ISI_1000",0.0979590817767082,1,"incongruent"
"5694e7b5e0c800000b5a3841",4,0.921,"Speed","Fixed","ISI_1000",0.95870841725771,1,"incongruent"
"5694e7b5e0c800000b5a3841",1,1.172,"Speed","Fixed","ISI_1000",-1.28429871020575,1,"congruent"
"5694e7b5e0c800000b5a3841",2,0.759,"Speed","Fixed","ISI_1000",-0.412390135284629,1,"incongruent"
"5694e7b5e0c800000b5a3841",3,0.623,"Speed","Fixed","ISI_1000",0.338254704387221,1,"incongruent"
"5694e7b5e0c800000b5a3841",1,0.631,"Speed","Fixed","ISI_1000",-1.28429871020575,1,"congruent"
"5694e7b5e0c800000b5a3841",2,0.673,"Speed","Fixed","ISI_1000",-0.814866704424839,1,"incongruent"
"5694e7b5e0c800000b5a3841",3,0.74,"Speed","Fixed","ISI_1000",-0.128201504209657,1,"incongruent"
"5694e7b5e0c800000b5a3841",4,0.59,"Speed","Fixed","ISI_1000",0.608308298838046,1,"incongruent"
"5694e7b5e0c800000b5a3841",2,1.349,"Speed","Fixed","ISI_1000",1.12088936378741,1,"congruent"
"5694e7b5e0c800000b5a3841",3,0.771,"Speed","Fixed","ISI_1000",2.31046428810385,1,"incongruent"
"5694e7b5e0c800000b5a3841",1,1.541,"Speed","Fixed","ISI_1000",-1.28429871020575,1,"congruent"
"5694e7b5e0c800000b5a3841",2,0.764,"Speed","Fixed","ISI_1000",-0.137872845057758,1,"incongruent"
"5694e7b5e0c800000b5a3841",3,0.847,"Speed","Fixed","ISI_1000",0.616491741094131,1,"congruent"
"5694e7b5e0c800000b5a3841",4,0.637,"Speed","Fixed","ISI_1000",1.43260411881467,1,"incongruent"
"5694e7b5e0c800000b5a3841",1,0.766,"Speed","Fixed","ISI_1000",-1.28429871020575,1,"incongruent"
"5694e7b5e0c800000b5a3841",2,1.113,"Speed","Fixed","ISI_1000",-0.714433549463788,1,"congruent"
"5694e7b5e0c800000b5a3841",3,0.781,"Speed","Fixed","ISI_1000",0.299569340994817,1,"congruent"
"56e130548b1c33000a388671",1,1.566,"Speed","Fixed","ISI_250",-1.28429871020575,1,"incongruent"
"56e130548b1c33000a388671",2,1.043,"Speed","Fixed","ISI_250",-0.119274112657564,1,"congruent"
"56e130548b1c33000a388671",3,1.145,"Speed","Fixed","ISI_250",0.842652327080497,1,"congruent"
"56e130548b1c33000a388671",1,1.336,"Speed","Fixed","ISI_250",-1.28429871020575,1,"congruent"
"56e130548b1c33000a388671",2,1.174,"Speed","Fixed","ISI_250",-0.290382450739353,1,"incongruent"
"56e130548b1c33000a388671",3,1.311,"Speed","Fixed","ISI_250",0.769001346775726,1,"congruent"
"56e130548b1c33000a388671",4,1.352,"Speed","Fixed","ISI_250",1.93030619784387,1,"incongruent"
"56e130548b1c33000a388671",1,1.354,"Speed","Fixed","ISI_250",-1.28429871020575,1,"incongruent"
"56e130548b1c33000a388671",2,1.224,"Speed","Fixed","ISI_250",-0.276991363411213,1,"congruent"
"56e130548b1c33000a388671",3,1.385,"Speed","Fixed","ISI_250",0.819589898904255,1,"incongruent"
"56e130548b1c33000a388671",1,0.962,"Speed","Fixed","ISI_250",-1.28429871020575,1,"incongruent"
"56e130548b1c33000a388671",2,1.066,"Speed","Fixed","ISI_250",-0.568619487446263,1,"congruent"
"56e130548b1c33000a388671",3,0.854,"Speed","Fixed","ISI_250",0.410417786099976,1,"congruent"
"56e130548b1c33000a388671",4,0.53,"Speed","Fixed","ISI_250",1.23173780889257,1,"incongruent"
"56e130548b1c33000a388671",1,0.846,"Speed","Fixed","ISI_250",-1.28429871020575,1,"incongruent"
"56e130548b1c33000a388671",2,1.288,"Speed","Fixed","ISI_250",-0.654917605783166,1,"congruent"
"56e130548b1c33000a388671",3,0.902,"Speed","Fixed","ISI_250",0.489276411476801,0,"incongruent"
"56e130548b1c33000a388671",1,0.975,"Speed","Fixed","ISI_250",-1.28429871020575,1,"congruent"
"56e130548b1c33000a388671",2,1.1,"Speed","Fixed","ISI_250",-0.558948146598162,1,"incongruent"
"56e130548b1c33000a388671",3,1.048,"Speed","Fixed","ISI_250",0.445383403012342,1,"congruent"
"56e130548b1c33000a388671",1,0.879,"Speed","Fixed","ISI_250",-1.28429871020575,1,"congruent"
"56e130548b1c33000a388671",2,0.969,"Speed","Fixed","ISI_250",-0.630367279014909,1,"incongruent"
"56e130548b1c33000a388671",3,0.993,"Speed","Fixed","ISI_250",0.276506912818576,1,"congruent"
"56e130548b1c33000a388671",4,1.13,"Speed","Fixed","ISI_250",1.20123588775625,1,"incongruent"
"56e130548b1c33000a388671",1,1.277,"Speed","Fixed","ISI_250",-1.28429871020575,1,"incongruent"
"56e130548b1c33000a388671",2,1.64,"Speed","Fixed","ISI_250",-0.334275459203812,1,"congruent"
"56e130548b1c33000a388671",3,0.905,"Speed","Fixed","ISI_250",1.07178871025089,1,"congruent"
"56e130548b1c33000a388671",1,0.847,"Speed","Fixed","ISI_250",-1.28429871020575,1,"incongruent"
"56e130548b1c33000a388671",2,1.021,"Speed","Fixed","ISI_250",-0.654173656487158,1,"congruent"
"56e130548b1c33000a388671",3,1.325,"Speed","Fixed","ISI_250",0.291385898738731,1,"incongruent"
"56e130548b1c33000a388671",1,1.449,"Speed","Fixed","ISI_250",-1.28429871020575,1,"incongruent"
"56e130548b1c33000a388671",2,0.599,"Speed","Fixed","ISI_250",-0.206316180290474,1,"congruent"
"56e130548b1c33000a388671",3,0.733,"Speed","Fixed","ISI_250",0.425296772020132,1,"incongruent"
"56e130548b1c33000a388671",4,0.943,"Speed","Fixed","ISI_250",1.15659892999578,1,"incongruent"
"56e130548b1c33000a388671",1,0.93,"Speed","Fixed","ISI_250",-1.28429871020575,1,"congruent"
"56e130548b1c33000a388671",2,1.114,"Speed","Fixed","ISI_250",-0.592425864918512,1,"incongruent"
"56e130548b1c33000a388671",3,0.866,"Speed","Fixed","ISI_250",0.422320974836101,1,"incongruent"
"56e130548b1c33000a388671",4,0.898,"Speed","Fixed","ISI_250",1.25256838918078,1,"congruent"
"56e130548b1c33000a388671",5,1.126,"Speed","Fixed","ISI_250",2.10662218099772,1,"congruent"
"56e130548b1c33000a388671",1,1.711,"Speed","Fixed","ISI_250",-1.28429871020575,1,"congruent"
"56e130548b1c33000a388671",2,1.085,"Speed","Fixed","ISI_250",-0.0114014647364356,1,"incongruent"
"56e130548b1c33000a388671",3,0.724,"Speed","Fixed","ISI_250",0.981770845433952,1,"congruent"
"56e130548b1c33000a388671",1,1.915,"Speed","Fixed","ISI_250",-1.28429871020575,1,"incongruent"
"56e130548b1c33000a388671",2,1.278,"Speed","Fixed","ISI_250",0.140364191649152,1,"congruent"
"56e130548b1c33000a388671",3,1.427,"Speed","Fixed","ISI_250",1.27711871594904,1,"incongruent"
"56e130548b1c33000a388671",1,1.31,"Speed","Fixed","ISI_250",-1.28429871020575,1,"congruent"
"56e130548b1c33000a388671",2,0.817,"Speed","Fixed","ISI_250",-0.309725132435556,1,"incongruent"
"56e130548b1c33000a388671",3,0.997,"Speed","Fixed","ISI_250",0.484068766404746,1,"congruent"
"56e130548b1c33000a388671",4,0.954,"Speed","Fixed","ISI_250",1.41177353852645,1,"incongruent"
"56e130548b1c33000a388671",1,0.827,"Speed","Fixed","ISI_250",-1.28429871020575,1,"incongruent"
"56e130548b1c33000a388671",2,0.842,"Speed","Fixed","ISI_250",-0.669052642407314,1,"congruent"
"56e130548b1c33000a388671",3,0.727,"Speed","Fixed","ISI_250",0.143339988833183,1,"congruent"
"56e130548b1c33000a388671",4,0.98,"Speed","Fixed","ISI_250",0.870178451032785,1,"incongruent"
"56e130548b1c33000a388671",5,0.611,"Speed","Fixed","ISI_250",1.78523608512235,1,"incongruent"
"56e130548b1c33000a388671",1,1.49,"Speed","Fixed","ISI_250",-1.28429871020575,1,"congruent"
"56e130548b1c33000a388671",2,0.82,"Speed","Fixed","ISI_250",-0.175814259154155,1,"incongruent"
"56e130548b1c33000a388671",3,0.938,"Speed","Fixed","ISI_250",0.62021148757417,1,"incongruent"
"56e130548b1c33000a388671",4,0.77,"Speed","Fixed","ISI_250",1.50402325123141,1,"incongruent"
"56e130548b1c33000a388671",1,1.317,"Speed","Fixed","ISI_250",-1.28429871020575,1,"incongruent"
"56e130548b1c33000a388671",2,1.374,"Speed","Fixed","ISI_250",-0.304517487363501,1,"congruent"
"56e130548b1c33000a388671",3,0.708,"Speed","Fixed","ISI_250",0.903656169353135,1,"congruent"
"56e130548b1c33000a388671",1,0.654,"Speed","Fixed","ISI_250",-1.28429871020575,1,"congruent"
"56e130548b1c33000a388671",2,1.316,"Speed","Fixed","ISI_250",-0.79775587061666,1,"incongruent"
"56e130548b1c33000a388671",3,0.992,"Speed","Fixed","ISI_250",0.367268726931525,1,"congruent"
"56e130548b1c33000a388671",1,1.08,"Accuracy","Fixed","ISI_250",-1.28429871020575,1,"congruent"
"56e130548b1c33000a388671",2,1.029,"Accuracy","Fixed","ISI_250",-0.480833470517345,1,"incongruent"
"56e130548b1c33000a388671",3,0.798,"Accuracy","Fixed","ISI_250",0.470677679076606,1,"congruent"
"56e130548b1c33000a388671",4,0.789,"Accuracy","Fixed","ISI_250",1.25033654129276,1,"incongruent"
"56e130548b1c33000a388671",1,0.989,"Accuracy","Fixed","ISI_250",-1.28429871020575,1,"incongruent"
"56e130548b1c33000a388671",3,0.654,"Accuracy","Fixed","ISI_250",2.52174588817006,1,"congruent"
"56e130548b1c33000a388671",1,0.846,"Accuracy","Fixed","ISI_250",-1.28429871020575,1,"congruent"
"56e130548b1c33000a388671",2,0.912,"Accuracy","Fixed","ISI_250",-0.654917605783166,1,"incongruent"
"56e130548b1c33000a388671",3,1.011,"Accuracy","Fixed","ISI_250",0.209551476177875,1,"congruent"
"56e130548b1c33000a388671",4,0.538,"Accuracy","Fixed","ISI_250",1.14767153844369,1,"incongruent"
"56e130548b1c33000a388671",5,0.671,"Accuracy","Fixed","ISI_250",1.73390358369782,1,"incongruent"
"56e130548b1c33000a388671",1,1.298,"Accuracy","Fixed","ISI_250",-1.28429871020575,1,"congruent"
"56e130548b1c33000a388671",2,0.865,"Accuracy","Fixed","ISI_250",-0.318652523987649,1,"incongruent"
"56e130548b1c33000a388671",3,0.818,"Accuracy","Fixed","ISI_250",0.510850941061026,1,"incongruent"
"56e130548b1c33000a388671",4,0.483,"Accuracy","Fixed","ISI_250",1.30538878919734,1,"congruent"
"56e130548b1c33000a388671",5,0.608,"Accuracy","Fixed","ISI_250",1.85070362317104,1,"congruent"
"56e130548b1c33000a388671",1,0.827,"Accuracy","Fixed","ISI_250",-1.28429871020575,1,"congruent"
"56e130548b1c33000a388671",2,0.834,"Accuracy","Fixed","ISI_250",-0.669052642407314,1,"incongruent"
"56e130548b1c33000a388671",3,0.914,"Accuracy","Fixed","ISI_250",0.137388394465121,1,"incongruent"
"56e130548b1c33000a388671",4,0.78,"Accuracy","Fixed","ISI_250",1.00334537501818,1,"incongruent"
"56e130548b1c33000a388671",1,1.168,"Accuracy","Fixed","ISI_250",-1.28429871020575,1,"incongruent"
"56e130548b1c33000a388671",2,0.872,"Accuracy","Fixed","ISI_250",-0.415365932468661,1,"congruent"
"56e130548b1c33000a388671",3,0.971,"Accuracy","Fixed","ISI_250",0.419345177652069,1,"congruent"
"56e130548b1c33000a388671",1,1.08,"Accuracy","Fixed","ISI_250",-1.28429871020575,1,"congruent"
"56e130548b1c33000a388671",2,1.097,"Accuracy","Fixed","ISI_250",-0.480833470517345,0,"incongruent"
"56e130548b1c33000a388671",3,0.969,"Accuracy","Fixed","ISI_250",0.521266231205135,1,"congruent"
"56e130548b1c33000a388671",1,1.2,"Accuracy","Fixed","ISI_250",-1.28429871020575,1,"incongruent"
"56e130548b1c33000a388671",1,1.079,"Accuracy","Fixed","ISI_250",-1.28429871020575,1,"congruent"
"56e130548b1c33000a388671",2,0.947,"Accuracy","Fixed","ISI_250",-0.481577419813353,1,"incongruent"
"56e130548b1c33000a388671",3,1.038,"Accuracy","Fixed","ISI_250",0.40892988750796,1,"incongruent"
"56e130548b1c33000a388671",4,0.88,"Accuracy","Fixed","ISI_250",1.36713658076598,1,"incongruent"
"56e130548b1c33000a388671",5,0.99,"Accuracy","Fixed","ISI_250",2.20779928525477,1,"congruent"
"56e130548b1c33000a388671",1,1.053,"Accuracy","Fixed","ISI_250",-1.28429871020575,1,"congruent"
"56e130548b1c33000a388671",2,0.972,"Accuracy","Fixed","ISI_250",-0.500920101509555,1,"incongruent"
"56e130548b1c33000a388671",3,0.927,"Accuracy","Fixed","ISI_250",0.408185938211953,1,"incongruent"
"56e130548b1c33000a388671",4,0.845,"Accuracy","Fixed","ISI_250",1.28381425961311,1,"congruent"
"56e130548b1c33000a388671",5,0.654,"Accuracy","Fixed","ISI_250",2.09843873874163,1,"incongruent"
"56e130548b1c33000a388671",1,0.603,"Accuracy","Fixed","ISI_250",-1.28429871020575,1,"incongruent"
"56e130548b1c33000a388671",2,0.997,"Accuracy","Fixed","ISI_250",-0.835697284713057,1,"congruent"
"56e130548b1c33000a388671",3,0.759,"Accuracy","Fixed","ISI_250",0.0920074874086459,1,"congruent"
"56e130548b1c33000a388671",1,0.635,"Accuracy","Fixed","ISI_250",-1.28429871020575,1,"congruent"
"56e130548b1c33000a388671",3,0.869,"Accuracy","Fixed","ISI_250",0.199136186033766,1,"incongruent"
"56e130548b1c33000a388671",1,0.949,"Accuracy","Fixed","ISI_250",-1.28429871020575,1,"incongruent"
"56e130548b1c33000a388671",2,0.864,"Accuracy","Fixed","ISI_250",-0.578290828294365,1,"congruent"
"56e130548b1c33000a388671",3,0.728,"Accuracy","Fixed","ISI_250",0.250468687458303,1,"incongruent"
"56e130548b1c33000a388671",4,0.989,"Accuracy","Fixed","ISI_250",0.978051098953913,1,"incongruent"
"56e130548b1c33000a388671",1,0.856,"Accuracy","Fixed","ISI_250",-1.28429871020575,1,"congruent"
"56e130548b1c33000a388671",2,1.28,"Accuracy","Fixed","ISI_250",-0.647478112823088,1,"incongruent"
"56e130548b1c33000a388671",4,0.993,"Accuracy","Fixed","ISI_250",1.25703208495683,1,"incongruent"
"56e130548b1c33000a388671",1,0.798,"Accuracy","Fixed","ISI_250",-1.28429871020575,1,"congruent"
"56e130548b1c33000a388671",2,1.107,"Accuracy","Fixed","ISI_250",-0.690627171991539,1,"incongruent"
"56e130548b1c33000a388671",3,0.845,"Accuracy","Fixed","ISI_250",0.318912022691019,1,"congruent"
"56e130548b1c33000a388671",1,0.734,"Accuracy","Fixed","ISI_250",-1.28429871020575,1,"congruent"
"56e130548b1c33000a388671",2,2.128,"Accuracy","Fixed","ISI_250",-0.738239926936037,1,"incongruent"
"56e130548b1c33000a388671",4,0.811,"Accuracy","Fixed","ISI_250",1.73390358369782,1,"incongruent"
"56e130548b1c33000a388671",1,0.78,"Accuracy","Fixed","ISI_250",-1.28429871020575,1,"congruent"
"56e130548b1c33000a388671",3,1.32,"Accuracy","Fixed","ISI_250",2.13712410213404,1,"incongruent"
"56e130548b1c33000a388671",1,1.041,"Accuracy","Fixed","ISI_250",-1.28429871020575,1,"congruent"
"56e130548b1c33000a388671",2,0.807,"Accuracy","Fixed","ISI_250",-0.509847493061649,1,"incongruent"
"56e130548b1c33000a388671",3,0.673,"Accuracy","Fixed","ISI_250",0.276506912818576,1,"congruent"
"56e130548b1c33000a388671",4,0.864,"Accuracy","Fixed","ISI_250",0.963172113033757,1,"incongruent"
"56e130548b1c33000a388671",1,0.965,"Speed","Fixed","ISI_1000",-1.28429871020575,1,"congruent"
"56e130548b1c33000a388671",2,1.109,"Speed","Fixed","ISI_1000",-0.56638763955824,1,"incongruent"
"56e130548b1c33000a388671",1,0.913,"Speed","Fixed","ISI_1000",-1.28429871020575,1,"congruent"
"56e130548b1c33000a388671",2,0.904,"Speed","Fixed","ISI_1000",-0.605073002950645,1,"incongruent"
"56e130548b1c33000a388671",3,0.79,"Speed","Fixed","ISI_1000",0.253444484642334,1,"incongruent"
"56e130548b1c33000a388671",4,0.521,"Speed","Fixed","ISI_1000",1.02715175249043,1,"congruent"
"56e130548b1c33000a388671",1,0.628,"Speed","Fixed","ISI_1000",-1.28429871020575,1,"congruent"
"56e130548b1c33000a388671",2,0.835,"Speed","Fixed","ISI_1000",-0.817098552312862,1,"incongruent"
"56e130548b1c33000a388671",3,0.819,"Speed","Fixed","ISI_1000",-0.00991356614442006,1,"incongruent"
"56e130548b1c33000a388671",4,1.071,"Speed","Fixed","ISI_1000",0.785368231287898,1,"congruent"
"56e130548b1c33000a388671",1,1.689,"Speed","Fixed","ISI_1000",-1.28429871020575,1,"incongruent"
"56e130548b1c33000a388671",2,0.734,"Speed","Fixed","ISI_1000",-0.0277683492486068,1,"congruent"
"56e130548b1c33000a388671",3,0.686,"Speed","Fixed","ISI_1000",0.704277758023049,1,"congruent"
"56e130548b1c33000a388671",4,1.035,"Speed","Fixed","ISI_1000",1.40061429908633,1,"incongruent"
"56e130548b1c33000a388671",2,1.051,"Speed","Fixed","ISI_1000",-0.581266625478396,1,"congruent"
"56e130548b1c33000a388671",3,0.871,"Speed","Fixed","ISI_1000",0.386611408627727,1,"congruent"
"56e130548b1c33000a388671",4,0.85,"Speed","Fixed","ISI_1000",1.22057856945245,1,"incongruent"
"56e130548b1c33000a388671",1,0.939,"Speed","Fixed","ISI_1000",-1.28429871020575,1,"congruent"
"56e130548b1c33000a388671",2,0.81,"Speed","Fixed","ISI_1000",-0.585730321254442,0,"incongruent"
"56e130548b1c33000a388671",3,0.905,"Speed","Fixed","ISI_1000",0.202855932513805,1,"congruent"
"56e130548b1c33000a388671",4,1.145,"Speed","Fixed","ISI_1000",1.06211736940279,1,"incongruent"
"56e130548b1c33000a388671",1,0.796,"Speed","Fixed","ISI_1000",-1.28429871020575,1,"congruent"
"56e130548b1c33000a388671",2,1.05,"Speed","Fixed","ISI_1000",-0.692115070583555,1,"incongruent"
"56e130548b1c33000a388671",3,0.719,"Speed","Fixed","ISI_1000",0.27501901422656,1,"incongruent"
"56e130548b1c33000a388671",4,1.028,"Speed","Fixed","ISI_1000",0.9959058820581,1,"incongruent"
"56e130548b1c33000a388671",1,1.131,"Speed","Fixed","ISI_1000",-1.28429871020575,1,"incongruent"
"56e130548b1c33000a388671",2,0.966,"Speed","Fixed","ISI_1000",-0.442892056420948,1,"congruent"
"56e130548b1c33000a388671",3,0.781,"Speed","Fixed","ISI_1000",0.461750287524513,1,"congruent"
"56e130548b1c33000a388671",4,1.023,"Speed","Fixed","ISI_1000",1.22876201170853,1,"incongruent"
"56e130548b1c33000a388671",5,0.927,"Speed","Fixed","ISI_1000",2.17580946552644,1,"congruent"
"56e130548b1c33000a388671",1,1.123,"Speed","Fixed","ISI_1000",-1.28429871020575,1,"incongruent"
"56e130548b1c33000a388671",2,1.146,"Speed","Fixed","ISI_1000",-0.448843650789011,1,"congruent"
"56e130548b1c33000a388671",3,1.68,"Speed","Fixed","ISI_1000",0.589709566437851,1,"congruent"
"56e130548b1c33000a388671",1,1.296,"Speed","Fixed","ISI_1000",-1.28429871020575,1,"incongruent"
"56e130548b1c33000a388671",2,0.902,"Speed","Fixed","ISI_1000",-0.320140422579665,1,"congruent"
"56e130548b1c33000a388671",3,0.634,"Speed","Fixed","ISI_1000",0.536889166421299,1,"congruent"
"56e130548b1c33000a388671",4,0.945,"Speed","Fixed","ISI_1000",1.19454034409218,1,"incongruent"
"56e130548b1c33000a388671",1,1.104,"Speed","Fixed","ISI_1000",-1.28429871020575,1,"incongruent"
"56e130548b1c33000a388671",2,1.362,"Speed","Fixed","ISI_1000",-0.462978687413159,1,"congruent"
"56e130548b1c33000a388671",3,0.921,"Speed","Fixed","ISI_1000",0.736267577751384,1,"congruent"
"56e130548b1c33000a388671",4,0.834,"Speed","Fixed","ISI_1000",1.6074322033765,1,"incongruent"
"56e130548b1c33000a388671",5,0.657,"Speed","Fixed","ISI_1000",2.41387324024893,1,"congruent"
"56e130548b1c33000a388671",1,0.732,"Speed","Fixed","ISI_1000",-1.28429871020575,1,"incongruent"
"56e130548b1c33000a388671",2,0.888,"Speed","Fixed","ISI_1000",-0.739727825528053,1,"congruent"
"56e130548b1c33000a388671",3,2.271,"Speed","Fixed","ISI_1000",0.106886473328802,1,"congruent"
"56e130548b1c33000a388671",4,0.789,"Speed","Fixed","ISI_1000",1.98238264856442,1,"incongruent"
"56e130548b1c33000a388671",1,1.023,"Speed","Fixed","ISI_1000",-1.28429871020575,1,"congruent"
"56e130548b1c33000a388671",2,0.964,"Speed","Fixed","ISI_1000",-0.523238580389789,1,"incongruent"
"56e130548b1c33000a388671",1,1.069,"Speed","Fixed","ISI_1000",-1.28429871020575,1,"congruent"
"56e130548b1c33000a388671",2,0.933,"Speed","Fixed","ISI_1000",-0.489016912773431,1,"incongruent"
"56e130548b1c33000a388671",3,0.88,"Speed","Fixed","ISI_1000",0.391075104403774,1,"incongruent"
"56e130548b1c33000a388671",4,1.551,"Speed","Fixed","ISI_1000",1.23173780889257,1,"incongruent"
"56e130548b1c33000a388671",1,0.99,"Speed","Fixed","ISI_1000",-1.28429871020575,1,"congruent"
"56e130548b1c33000a388671",2,1.207,"Speed","Fixed","ISI_1000",-0.547788907158046,1,"incongruent"
"56e130548b1c33000a388671",3,0.832,"Speed","Fixed","ISI_1000",0.536145217125291,1,"incongruent"
"56e130548b1c33000a388671",1,0.892,"Speed","Fixed","ISI_1000",-1.28429871020575,1,"congruent"
"56e130548b1c33000a388671",2,0.706,"Speed","Fixed","ISI_1000",-0.620695938166808,1,"incongruent"
"56e130548b1c33000a388671",3,0.809,"Speed","Fixed","ISI_1000",0.0905195888166303,1,"congruent"
"56e130548b1c33000a388671",4,0.961,"Speed","Fixed","ISI_1000",0.87836189328887,1,"incongruent"
"56e130548b1c33000a388671",1,0.693,"Speed","Fixed","ISI_1000",-1.28429871020575,1,"incongruent"
"56e130548b1c33000a388671",1,0.841,"Speed","Fixed","ISI_1000",-1.28429871020575,1,"incongruent"
"56e130548b1c33000a388671",2,0.724,"Speed","Fixed","ISI_1000",-0.658637352263205,1,"congruent"
"56e130548b1c33000a388671",3,0.749,"Speed","Fixed","ISI_1000",0.0659692620483736,1,"incongruent"
"56e130548b1c33000a388671",4,0.905,"Speed","Fixed","ISI_1000",0.809174608760147,1,"incongruent"
"56e130548b1c33000a388671",2,0.687,"Accuracy","Fixed","ISI_1000",-0.852808118521236,1,"congruent"
"56e130548b1c33000a388671",4,1.128,"Accuracy","Fixed","ISI_1000",0.591941414325875,1,"incongruent"
"56e130548b1c33000a388671",1,0.84,"Accuracy","Fixed","ISI_1000",-1.28429871020575,1,"incongruent"
"56e130548b1c33000a388671",2,1.226,"Accuracy","Fixed","ISI_1000",-0.659381301559213,1,"congruent"
"56e130548b1c33000a388671",3,0.874,"Accuracy","Fixed","ISI_1000",0.438687859348272,1,"congruent"
"56e130548b1c33000a388671",1,0.965,"Accuracy","Fixed","ISI_1000",-1.28429871020575,1,"congruent"
"56e130548b1c33000a388671",2,1.075,"Accuracy","Fixed","ISI_1000",-0.56638763955824,1,"incongruent"
"56e130548b1c33000a388671",3,0.771,"Accuracy","Fixed","ISI_1000",0.419345177652069,1,"congruent"
"56e130548b1c33000a388671",4,1.136,"Accuracy","Fixed","ISI_1000",1.17891740887601,1,"incongruent"
"56e130548b1c33000a388671",1,0.863,"Accuracy","Fixed","ISI_1000",-1.28429871020575,1,"congruent"
"56e130548b1c33000a388671",2,1.04,"Accuracy","Fixed","ISI_1000",-0.642270467751034,1,"incongruent"
"56e130548b1c33000a388671",3,0.8,"Accuracy","Fixed","ISI_1000",0.317424124099004,1,"incongruent"
"56e130548b1c33000a388671",4,0.965,"Accuracy","Fixed","ISI_1000",1.09857088490717,1,"incongruent"
"56e130548b1c33000a388671",1,0.862,"Accuracy","Fixed","ISI_1000",-1.28429871020575,1,"congruent"
"56e130548b1c33000a388671",2,0.732,"Accuracy","Fixed","ISI_1000",-0.643014417047042,1,"incongruent"
"56e130548b1c33000a388671",3,0.698,"Accuracy","Fixed","ISI_1000",0.0875437916325992,1,"congruent"
"56e130548b1c33000a388671",4,0.837,"Accuracy","Fixed","ISI_1000",0.792807724247975,1,"incongruent"
"56e130548b1c33000a388671",5,0.705,"Accuracy","Fixed","ISI_1000",1.60148060900843,1,"congruent"
"56e130548b1c33000a388671",6,0.592,"Accuracy","Fixed","ISI_1000",2.31195218669586,1,"incongruent"
"56e130548b1c33000a388671",1,0.581,"Accuracy","Fixed","ISI_1000",-1.28429871020575,1,"congruent"
"56e130548b1c33000a388671",2,1.096,"Accuracy","Fixed","ISI_1000",-0.852064169225228,1,"incongruent"
"56e130548b1c33000a388671",3,0.795,"Accuracy","Fixed","ISI_1000",0.149291583201245,1,"incongruent"
"56e130548b1c33000a388671",4,0.742,"Accuracy","Fixed","ISI_1000",0.926718597529376,1,"incongruent"
"56e130548b1c33000a388671",5,1.207,"Accuracy","Fixed","ISI_1000",1.66471629916909,1,"congruent"
"56e130548b1c33000a388671",2,1.318,"Accuracy","Fixed","ISI_1000",-0.551508653638084,1,"incongruent"
"56e130548b1c33000a388671",3,0.858,"Accuracy","Fixed","ISI_1000",0.615003842502116,1,"incongruent"
"56e130548b1c33000a388671",4,1.091,"Accuracy","Fixed","ISI_1000",1.43929966247874,1,"congruent"
"56e130548b1c33000a388671",5,0.741,"Accuracy","Fixed","ISI_1000",2.43693566842517,1,"congruent"
"56e130548b1c33000a388671",1,0.966,"Accuracy","Fixed","ISI_1000",-1.28429871020575,1,"incongruent"
"56e130548b1c33000a388671",2,0.96,"Accuracy","Fixed","ISI_1000",-0.565643690262232,1,"congruent"
"56e130548b1c33000a388671",3,0.827,"Accuracy","Fixed","ISI_1000",0.334534957907182,1,"incongruent"
"56e130548b1c33000a388671",4,1.623,"Accuracy","Fixed","ISI_1000",1.13576834970756,1,"incongruent"
"56e130548b1c33000a388671",1,1.644,"Accuracy","Fixed","ISI_1000",-1.28429871020575,1,"incongruent"
"56e130548b1c33000a388671",2,0.854,"Accuracy","Fixed","ISI_1000",-0.0612460675689569,1,"congruent"
"56e130548b1c33000a388671",3,0.778,"Accuracy","Fixed","ISI_1000",0.760073955223633,1,"congruent"
"56e130548b1c33000a388671",4,1.001,"Accuracy","Fixed","ISI_1000",1.52485383151963,1,"incongruent"
"56e130548b1c33000a388671",1,1.813,"Accuracy","Fixed","ISI_1000",-1.28429871020575,1,"congruent"
"56e130548b1c33000a388671",2,1.377,"Accuracy","Fixed","ISI_1000",0.064481363456358,1,"incongruent"
"56e130548b1c33000a388671",1,1.169,"Accuracy","Fixed","ISI_1000",-1.28429871020575,1,"incongruent"
"56e130548b1c33000a388671",2,1.182,"Accuracy","Fixed","ISI_1000",-0.414621983172653,1,"congruent"
"56e130548b1c33000a388671",3,1.375,"Accuracy","Fixed","ISI_1000",0.650713408710489,1,"congruent"
"56e130548b1c33000a388671",1,0.83,"Accuracy","Fixed","ISI_1000",-1.28429871020575,1,"congruent"
"56e130548b1c33000a388671",3,1.287,"Accuracy","Fixed","ISI_1000",0.2884101015547,1,"incongruent"
"56e130548b1c33000a388671",1,0.718,"Accuracy","Fixed","ISI_1000",-1.28429871020575,1,"congruent"
"56e130548b1c33000a388671",2,0.908,"Accuracy","Fixed","ISI_1000",-0.750143115672162,1,"incongruent"
"56e130548b1c33000a388671",3,1.091,"Accuracy","Fixed","ISI_1000",0.111350169104848,1,"congruent"
"56e130548b1c33000a388671",1,0.854,"Accuracy","Fixed","ISI_1000",-1.28429871020575,1,"incongruent"
"56e130548b1c33000a388671",2,0.821,"Accuracy","Fixed","ISI_1000",-0.648966011415104,1,"congruent"
"56e130548b1c33000a388671",3,1.086,"Accuracy","Fixed","ISI_1000",0.147803684609229,1,"incongruent"
"56e130548b1c33000a388671",2,1.853,"Accuracy","Fixed","ISI_1000",0.518290434021104,1,"incongruent"
"56e130548b1c33000a388671",1,1.364,"Accuracy","Fixed","ISI_1000",-1.28429871020575,1,"incongruent"
"56e130548b1c33000a388671",2,0.781,"Accuracy","Fixed","ISI_1000",-0.269551870451136,1,"congruent"
"56e130548b1c33000a388671",3,0.592,"Accuracy","Fixed","ISI_1000",0.497459853732886,1,"congruent"
"56e130548b1c33000a388671",4,0.93,"Accuracy","Fixed","ISI_1000",1.12386516097144,1,"incongruent"
"56e130548b1c33000a388671",2,0.966,"Accuracy","Fixed","ISI_1000",1.50848694700746,1,"congruent"
"56e130548b1c33000a388671",3,0.604,"Accuracy","Fixed","ISI_1000",2.41312929095292,1,"congruent"
"56e130548b1c33000a388671",1,0.915,"Accuracy","Fixed","ISI_1000",-1.28429871020575,1,"incongruent"
"56e130548b1c33000a388671",2,0.62,"Accuracy","Fixed","ISI_1000",-0.603585104358629,1,"congruent"
"56e130548b1c33000a388671",3,0.792,"Accuracy","Fixed","ISI_1000",0.0436507831681402,1,"incongruent"
"56e130548b1c33000a388671",4,0.597,"Accuracy","Fixed","ISI_1000",0.818845949608248,1,"congruent"
"56e130548b1c33000a388671",5,0.959,"Accuracy","Fixed","ISI_1000",1.44897100332684,1,"incongruent"
"56e130548b1c33000a388671",1,0.893,"Accuracy","Varying","ISI_250",-1.28429871020575,1,"incongruent"
"56e130548b1c33000a388671",2,0.676,"Accuracy","Varying","ISI_250",-0.6199519888708,1,"congruent"
"56e130548b1c33000a388671",3,1.128,"Accuracy","Varying","ISI_250",0.0689450592324047,1,"incongruent"
"56e130548b1c33000a388671",4,0.781,"Accuracy","Varying","ISI_250",1.09410718913113,1,"congruent"
"56e130548b1c33000a388671",1,0.77,"Speed","Varying","ISI_250",-1.28429871020575,1,"incongruent"
"56e130548b1c33000a388671",2,0.84,"Speed","Varying","ISI_250",-0.711457752279757,1,"congruent"
"56e130548b1c33000a388671",3,0.916,"Speed","Varying","ISI_250",0.0994469803687237,1,"incongruent"
"56e130548b1c33000a388671",4,0.652,"Speed","Varying","ISI_250",0.966891859513796,1,"incongruent"
"56e130548b1c33000a388671",5,0.697,"Speed","Varying","ISI_250",1.63793412451281,1,"congruent"
"56e130548b1c33000a388671",1,1.341,"Accuracy","Varying","ISI_250",-1.28429871020575,1,"congruent"
"56e130548b1c33000a388671",2,1.095,"Accuracy","Varying","ISI_250",-0.286662704259315,1,"incongruent"
"56e130548b1c33000a388671",3,0.958,"Accuracy","Varying","ISI_250",0.713949098871151,1,"incongruent"
"56e130548b1c33000a388671",4,0.929,"Accuracy","Varying","ISI_250",1.61263984844855,1,"congruent"
"56e130548b1c33000a388671",1,1.829,"Speed","Varying","ISI_250",-1.28429871020575,1,"incongruent"
"56e130548b1c33000a388671",2,0.616,"Speed","Varying","ISI_250",0.0763845521924825,1,"congruent"
"56e130548b1c33000a388671",3,0.651,"Speed","Varying","ISI_250",0.720644642535221,1,"congruent"
"56e130548b1c33000a388671",4,0.87,"Speed","Varying","ISI_250",1.39094295823823,1,"incongruent"
"56e130548b1c33000a388671",1,0.737,"Accuracy","Varying","ISI_250",-1.28429871020575,1,"incongruent"
"56e130548b1c33000a388671",2,0.678,"Accuracy","Varying","ISI_250",-0.736008079048014,1,"congruent"
"56e130548b1c33000a388671",4,0.791,"Accuracy","Varying","ISI_250",0.698326163654987,1,"congruent"
"56e130548b1c33000a388671",5,0.834,"Accuracy","Varying","ISI_250",1.47277738079909,1,"incongruent"
"56e130548b1c33000a388671",1,0.972,"Speed","Varying","ISI_250",-1.28429871020575,1,"congruent"
"56e130548b1c33000a388671",2,1.057,"Speed","Varying","ISI_250",-0.561179994486186,1,"incongruent"
"56e130548b1c33000a388671",3,0.703,"Speed","Varying","ISI_250",0.411161735395984,1,"congruent"
"56e130548b1c33000a388671",4,0.69,"Speed","Varying","ISI_250",1.1201454144914,1,"incongruent"
"56e130548b1c33000a388671",1,1.383,"Accuracy","Varying","ISI_250",-1.28429871020575,1,"incongruent"
"56e130548b1c33000a388671",2,0.776,"Accuracy","Varying","ISI_250",-0.255416833826988,1,"congruent"
"56e130548b1c33000a388671",3,1.233,"Accuracy","Varying","ISI_250",0.507875143876995,1,"congruent"
"56e130548b1c33000a388671",4,0.556,"Accuracy","Varying","ISI_250",1.61115194985653,1,"incongruent"
"56e130548b1c33000a388671",1,0.885,"Speed","Varying","ISI_250",-1.28429871020575,1,"congruent"
"56e130548b1c33000a388671",2,1.046,"Speed","Varying","ISI_250",-0.625903583238863,1,"incongruent"
"56e130548b1c33000a388671",3,1.332,"Speed","Varying","ISI_250",0.338254704387221,1,"incongruent"
"56e130548b1c33000a388671",4,1.082,"Speed","Varying","ISI_250",1.51518249067153,1,"incongruent"
"56e130548b1c33000a388671",1,1.07,"Accuracy","Varying","ISI_250",-1.28429871020575,1,"incongruent"
"56e130548b1c33000a388671",2,0.861,"Accuracy","Varying","ISI_250",-0.488272963477423,1,"congruent"
"56e130548b1c33000a388671",3,0.968,"Accuracy","Varying","ISI_250",0.338254704387221,1,"incongruent"
"56e130548b1c33000a388671",1,0.833,"Speed","Varying","ISI_250",-1.28429871020575,1,"incongruent"
"56e130548b1c33000a388671",2,0.761,"Speed","Varying","ISI_250",-0.664588946631267,1,"congruent"
"56e130548b1c33000a388671",3,1.141,"Speed","Varying","ISI_250",0.0875437916325992,1,"incongruent"
"56e130548b1c33000a388671",4,0.763,"Speed","Varying","ISI_250",1.12237726237942,1,"incongruent"
"56e130548b1c33000a388671",5,0.623,"Speed","Varying","ISI_250",1.8759978992353,1,"congruent"
"56e130548b1c33000a388671",1,1.822,"Accuracy","Varying","ISI_250",-1.28429871020575,1,"congruent"
"56e130548b1c33000a388671",2,0.928,"Accuracy","Varying","ISI_250",0.071176907120428,1,"incongruent"
"56e130548b1c33000a388671",3,0.75,"Accuracy","Varying","ISI_250",0.947549177817594,1,"incongruent"
"56e130548b1c33000a388671",4,0.852,"Accuracy","Varying","ISI_250",1.69149847382537,1,"incongruent"
"56e130548b1c33000a388671",1,1.03,"Speed","Varying","ISI_250",-1.28429871020575,1,"congruent"
"56e130548b1c33000a388671",2,0.811,"Speed","Varying","ISI_250",-0.518030935317734,1,"incongruent"
"56e130548b1c33000a388671",3,1.1,"Speed","Varying","ISI_250",0.271299267746521,1,"congruent"
"56e130548b1c33000a388671",4,0.782,"Speed","Varying","ISI_250",1.27563081735703,1,"incongruent"
"56e130548b1c33000a388671",5,0.586,"Speed","Varying","ISI_250",2.04338649083705,1,"incongruent"
"56e130548b1c33000a388671",1,1.288,"Accuracy","Varying","ISI_250",-1.28429871020575,1,"congruent"
"56e130548b1c33000a388671",2,1.033,"Accuracy","Varying","ISI_250",-0.326092016947727,1,"incongruent"
"56e130548b1c33000a388671",3,1.147,"Accuracy","Varying","ISI_250",0.628394929830256,1,"incongruent"
"56e130548b1c33000a388671",4,0.826,"Accuracy","Varying","ISI_250",1.66769209635313,1,"incongruent"
"56e130548b1c33000a388671",1,0.678,"Speed","Varying","ISI_250",-1.28429871020575,1,"congruent"
"56e130548b1c33000a388671",2,0.695,"Speed","Varying","ISI_250",-0.779901087512473,1,"incongruent"
"56e130548b1c33000a388671",3,0.988,"Speed","Varying","ISI_250",-0.0768690027851203,1,"incongruent"
"56e130548b1c33000a388671",4,0.966,"Speed","Varying","ISI_250",0.844140225672512,1,"congruent"
"56e130548b1c33000a388671",1,0.702,"Accuracy","Varying","ISI_250",-1.28429871020575,1,"congruent"
"56e130548b1c33000a388671",2,1.208,"Accuracy","Varying","ISI_250",-0.762046304408286,1,"incongruent"
"56e130548b1c33000a388671",3,0.963,"Accuracy","Varying","ISI_250",0.322631769171058,1,"congruent"
"56e130548b1c33000a388671",4,0.959,"Accuracy","Varying","ISI_250",1.2250422652285,1,"incongruent"
"56e130548b1c33000a388671",1,0.937,"Speed","Varying","ISI_250",-1.28429871020575,1,"incongruent"
"56e130548b1c33000a388671",2,0.835,"Speed","Varying","ISI_250",-0.587218219846458,1,"congruent"
"56e130548b1c33000a388671",3,0.772,"Speed","Varying","ISI_250",0.219966766321984,1,"congruent"
"56e130548b1c33000a388671",4,1.283,"Speed","Varying","ISI_250",0.980282946841936,1,"incongruent"
"56e130548b1c33000a388671",5,1.036,"Speed","Varying","ISI_250",2.12075721762186,1,"incongruent"
"56e130548b1c33000a388671",1,1.009,"Accuracy","Varying","ISI_250",-1.28429871020575,1,"incongruent"
"56e130548b1c33000a388671",2,0.601,"Accuracy","Varying","ISI_250",-0.533653870533898,1,"congruent"
"56e130548b1c33000a388671",3,0.788,"Accuracy","Varying","ISI_250",0.0994469803687237,1,"congruent"
"56e130548b1c33000a388671",4,0.813,"Accuracy","Varying","ISI_250",0.8716663496248,1,"incongruent"
"56e130548b1c33000a388671",1,0.804,"Speed","Varying","ISI_250",-1.28429871020575,1,"congruent"
"56e130548b1c33000a388671",2,1.447,"Speed","Varying","ISI_250",-0.686163476215493,1,"incongruent"
"56e130548b1c33000a388671",3,0.674,"Speed","Varying","ISI_250",0.576318479109711,1,"congruent"
"56e130548b1c33000a388671",1,1.46,"Accuracy","Varying","ISI_250",-1.28429871020575,1,"congruent"
"56e130548b1c33000a388671",2,2.125,"Accuracy","Varying","ISI_250",-0.198132738034389,1,"incongruent"
"56e130548b1c33000a388671",1,1.185,"Speed","Varying","ISI_250",-1.28429871020575,1,"incongruent"
"56e130548b1c33000a388671",2,0.741,"Speed","Varying","ISI_250",-0.402718794436528,1,"congruent"
"56e130548b1c33000a388671",3,0.785,"Speed","Varying","ISI_250",0.334534957907182,1,"congruent"
"56e130548b1c33000a388671",4,1.08,"Speed","Varying","ISI_250",1.10452247927524,1,"incongruent"
"56e130548b1c33000a388671",1,0.715,"Accuracy","Varying","ISI_250",-1.28429871020575,1,"congruent"
"56e130548b1c33000a388671",2,0.844,"Accuracy","Varying","ISI_250",-0.752374963560185,1,"incongruent"
"56e130548b1c33000a388671",3,1.618,"Accuracy","Varying","ISI_250",0.0615055662723269,1,"incongruent"
"56e130548b1c33000a388671",4,0.938,"Accuracy","Varying","ISI_250",1.45120285121486,1,"congruent"
"56e130548b1c33000a388671",1,0.864,"Speed","Varying","ISI_250",-1.28429871020575,1,"congruent"
"56e130548b1c33000a388671",2,0.959,"Speed","Varying","ISI_250",-0.641526518455026,1,"incongruent"
"56e130548b1c33000a388671",3,2.122,"Speed","Varying","ISI_250",0.257908180418381,1,"congruent"
"56e130548b1c33000a388671",1,0.87,"Accuracy","Varying","ISI_250",-1.28429871020575,1,"congruent"
"56e130548b1c33000a388671",2,0.951,"Accuracy","Varying","ISI_250",-0.637062822678979,1,"incongruent"
"56e130548b1c33000a388671",3,0.544,"Accuracy","Varying","ISI_250",0.256420281826365,1,"congruent"
"56e130548b1c33000a388671",4,0.913,"Accuracy","Varying","ISI_250",0.847116022856543,1,"incongruent"
"56e130548b1c33000a388671",5,0.625,"Accuracy","Varying","ISI_250",1.71232905411359,1,"incongruent"
"56e130548b1c33000a388671",1,1.222,"Speed","Varying","ISI_250",-1.28429871020575,1,"incongruent"
"56e130548b1c33000a388671",2,0.851,"Speed","Varying","ISI_250",-0.37519267048424,1,"congruent"
"56e130548b1c33000a388671",3,1.157,"Speed","Varying","ISI_250",0.443895504420326,1,"congruent"
"56e130548b1c33000a388671",1,0.839,"Accuracy","Varying","ISI_250",-1.28429871020575,1,"incongruent"
"56e130548b1c33000a388671",2,0.821,"Accuracy","Varying","ISI_250",-0.66012525085522,1,"congruent"
"56e130548b1c33000a388671",3,0.7,"Accuracy","Varying","ISI_250",0.136644445169113,1,"incongruent"
"56e130548b1c33000a388671",4,0.522,"Accuracy","Varying","ISI_250",0.843396276376504,1,"incongruent"
"56e130548b1c33000a388671",1,0.868,"Speed","Varying","ISI_250",-1.28429871020575,1,"incongruent"
"56e130548b1c33000a388671",2,0.976,"Speed","Varying","ISI_250",-0.638550721270995,1,"congruent"
"56e130548b1c33000a388671",3,1.071,"Speed","Varying","ISI_250",0.273531115634544,1,"incongruent"
"56e130548b1c33000a388671",1,0.909,"Accuracy","Varying","ISI_250",-1.28429871020575,1,"congruent"
"56e130548b1c33000a388671",2,1.311,"Accuracy","Varying","ISI_250",-0.608048800134676,1,"incongruent"
"56e130548b1c33000a388671",3,1.026,"Accuracy","Varying","ISI_250",0.55325605093347,1,"congruent"
"56e130548b1c33000a388671",1,1.01,"Speed","Varying","ISI_250",-1.28429871020575,1,"congruent"
"56e130548b1c33000a388671",2,2.295,"Speed","Varying","ISI_250",-0.53290992123789,1,"incongruent"
"56e130548b1c33000a388671",1,0.757,"Accuracy","Varying","ISI_250",-1.28429871020575,1,"incongruent"
"56e130548b1c33000a388671",2,0.964,"Accuracy","Varying","ISI_250",-0.721129093127858,1,"congruent"
"56e130548b1c33000a388671",3,0.969,"Accuracy","Varying","ISI_250",0.182025352225587,1,"incongruent"
"56e130548b1c33000a388671",4,0.82,"Accuracy","Varying","ISI_250",1.08889954405907,1,"incongruent"
"56e130548b1c33000a388671",5,1.288,"Accuracy","Varying","ISI_250",1.8849252907874,1,"congruent"
"56e130548b1c33000a388671",1,0.886,"Speed","Varying","ISI_250",-1.28429871020575,1,"incongruent"
"56e130548b1c33000a388671",2,1.235,"Speed","Varying","ISI_250",-0.625159633942855,1,"congruent"
"56e130548b1c33000a388671",3,0.945,"Speed","Varying","ISI_250",0.4796050706287,1,"incongruent"
"56e130548b1c33000a388671",4,0.828,"Speed","Varying","ISI_250",1.368624479358,1,"congruent"
"56e130548b1c33000a388671",1,0.942,"Accuracy","Varying","ISI_250",-1.28429871020575,1,"incongruent"
"56e130548b1c33000a388671",2,0.844,"Accuracy","Varying","ISI_250",-0.583498473366419,1,"congruent"
"56e130548b1c33000a388671",1,0.676,"Speed","Varying","ISI_250",-1.28429871020575,1,"incongruent"
"56e130548b1c33000a388671",2,0.756,"Speed","Varying","ISI_250",-0.781388986104489,1,"congruent"
"56e130548b1c33000a388671",3,1.175,"Speed","Varying","ISI_250",-0.0329759943206613,1,"congruent"
"56e130548b1c33000a388671",4,0.715,"Speed","Varying","ISI_250",1.02715175249043,1,"incongruent"
"56e130548b1c33000a388671",1,0.946,"Accuracy","Varying","ISI_250",-1.28429871020575,1,"incongruent"
"56e130548b1c33000a388671",2,0.749,"Accuracy","Varying","ISI_250",-0.580522676182388,1,"congruent"
"56e130548b1c33000a388671",3,2.117,"Accuracy","Varying","ISI_250",0.162682670529385,1,"incongruent"
"56e130548b1c33000a388671",1,1.219,"Speed","Varying","ISI_250",-1.28429871020575,1,"congruent"
"56e130548b1c33000a388671",2,1.038,"Speed","Varying","ISI_250",-0.377424518372264,1,"incongruent"
"56e130548b1c33000a388671",3,1.849,"Speed","Varying","ISI_250",0.580782174885758,1,"incongruent"
"56e130548b1c33000a388671",4,0.91,"Speed","Varying","ISI_250",2.14233174720609,1,"congruent"
"56e130548b1c33000a388671",1,0.811,"Accuracy","Varying","ISI_250",-1.28429871020575,1,"incongruent"
"56e130548b1c33000a388671",2,1.135,"Accuracy","Varying","ISI_250",-0.680955831143438,1,"congruent"
"56e130548b1c33000a388671",3,1.905,"Accuracy","Varying","ISI_250",0.349413943827338,1,"incongruent"
"56e130548b1c33000a388671",4,0.582,"Accuracy","Varying","ISI_250",1.95262467672411,1,"incongruent"
"56e130548b1c33000a388671",1,0.946,"Speed","Varying","ISI_250",-1.28429871020575,1,"incongruent"
"56e130548b1c33000a388671",2,0.573,"Speed","Varying","ISI_250",-0.580522676182388,1,"congruent"
"56e130548b1c33000a388671",3,0.773,"Speed","Varying","ISI_250",0.0317475944320157,1,"congruent"
"56e130548b1c33000a388671",4,0.84,"Speed","Varying","ISI_250",0.792807724247975,1,"incongruent"
"56e130548b1c33000a388671",1,0.836,"Accuracy","Varying","ISI_1000",-1.28429871020575,1,"congruent"
"56e130548b1c33000a388671",2,0.829,"Accuracy","Varying","ISI_1000",-0.662357098743244,1,"incongruent"
"56e130548b1c33000a388671",3,0.796,"Accuracy","Varying","ISI_1000",0.140364191649152,1,"incongruent"
"56e130548b1c33000a388671",4,1.241,"Accuracy","Varying","ISI_1000",0.91853515527329,1,"congruent"
"56e130548b1c33000a388671",1,0.746,"Speed","Varying","ISI_1000",-1.28429871020575,1,"congruent"
"56e130548b1c33000a388671",2,1.063,"Speed","Varying","ISI_1000",-0.729312535383944,1,"incongruent"
"56e130548b1c33000a388671",3,0.704,"Speed","Varying","ISI_1000",0.247492890274272,1,"congruent"
"56e130548b1c33000a388671",4,0.948,"Speed","Varying","ISI_1000",0.957220518665695,1,"incongruent"
"56e130548b1c33000a388671",5,1.017,"Speed","Varying","ISI_1000",1.84847177528302,1,"incongruent"
"56e130548b1c33000a388671",1,1.181,"Accuracy","Varying","ISI_1000",-1.28429871020575,1,"incongruent"
"56e130548b1c33000a388671",2,0.763,"Accuracy","Varying","ISI_1000",-0.405694591620559,1,"congruent"
"56e130548b1c33000a388671",3,1.152,"Accuracy","Varying","ISI_1000",0.347926045235323,1,"incongruent"
"56e130548b1c33000a388671",4,0.865,"Accuracy","Varying","ISI_1000",1.39094295823823,1,"incongruent"
"56e130548b1c33000a388671",1,0.777,"Speed","Varying","ISI_1000",-1.28429871020575,1,"congruent"
"56e130548b1c33000a388671",2,0.998,"Speed","Varying","ISI_1000",-0.706250107207703,1,"incongruent"
"56e130548b1c33000a388671",3,0.729,"Speed","Varying","ISI_1000",0.222198614210008,1,"congruent"
"56e130548b1c33000a388671",4,1.166,"Speed","Varying","ISI_1000",0.950524975001625,1,"incongruent"
"56e130548b1c33000a388671",5,0.787,"Speed","Varying","ISI_1000",2.00395717814864,1,"incongruent"
"56e130548b1c33000a388671",1,0.911,"Accuracy","Varying","ISI_1000",-1.28429871020575,1,"incongruent"
"56e130548b1c33000a388671",2,1.964,"Accuracy","Varying","ISI_1000",-0.60656090154266,1,"congruent"
"56e130548b1c33000a388671",3,1.216,"Accuracy","Varying","ISI_1000",1.04054283981857,1,"incongruent"
"56e130548b1c33000a388671",1,1.175,"Speed","Varying","ISI_1000",-1.28429871020575,1,"congruent"
"56e130548b1c33000a388671",2,0.751,"Speed","Varying","ISI_1000",-0.410158287396606,1,"incongruent"
"56e130548b1c33000a388671",3,0.654,"Speed","Varying","ISI_1000",0.334534957907182,1,"incongruent"
"56e130548b1c33000a388671",1,0.611,"Accuracy","Varying","ISI_1000",-1.28429871020575,1,"congruent"
"56e130548b1c33000a388671",2,0.707,"Accuracy","Varying","ISI_1000",-0.829745690344994,1,"incongruent"
"56e130548b1c33000a388671",3,1.34,"Accuracy","Varying","ISI_1000",-0.117786214065548,1,"incongruent"
"56e130548b1c33000a388671",4,0.77,"Accuracy","Varying","ISI_1000",1.06509316658682,1,"congruent"
"56e130548b1c33000a388671",1,0.832,"Speed","Varying","ISI_1000",-1.28429871020575,1,"incongruent"
"56e130548b1c33000a388671",2,0.966,"Speed","Varying","ISI_1000",-0.665332895927275,1,"congruent"
"56e130548b1c33000a388671",3,1.361,"Speed","Varying","ISI_1000",0.239309448018187,1,"incongruent"
"56e130548b1c33000a388671",1,0.71,"Accuracy","Varying","ISI_1000",-1.28429871020575,1,"congruent"
"56e130548b1c33000a388671",2,0.932,"Accuracy","Varying","ISI_1000",-0.756094710040224,1,"incongruent"
"56e130548b1c33000a388671",3,0.703,"Accuracy","Varying","ISI_1000",0.123253357840973,1,"congruent"
"56e130548b1c33000a388671",4,1.306,"Accuracy","Varying","ISI_1000",0.832237036936388,1,"incongruent"
"56e130548b1c33000a388671",1,0.937,"Speed","Varying","ISI_1000",-1.28429871020575,1,"incongruent"
"56e130548b1c33000a388671",2,0.736,"Speed","Varying","ISI_1000",-0.587218219846458,1,"congruent"
"56e130548b1c33000a388671",3,0.978,"Speed","Varying","ISI_1000",0.146315786017214,1,"congruent"
"56e130548b1c33000a388671",1,0.839,"Accuracy","Varying","ISI_1000",-1.28429871020575,1,"incongruent"
"56e130548b1c33000a388671",2,1.558,"Accuracy","Varying","ISI_1000",-0.66012525085522,1,"congruent"
"56e130548b1c33000a388671",3,0.819,"Accuracy","Varying","ISI_1000",0.684935076326847,1,"incongruent"
"56e130548b1c33000a388671",1,1.055,"Speed","Varying","ISI_1000",-1.28429871020575,1,"congruent"
"56e130548b1c33000a388671",2,0.903,"Speed","Varying","ISI_1000",-0.49943220291754,1,"incongruent"
"56e130548b1c33000a388671",3,0.928,"Speed","Varying","ISI_1000",0.358341335379431,1,"incongruent"
"56e130548b1c33000a388671",4,0.78,"Speed","Varying","ISI_1000",1.2347136060766,1,"congruent"
"56e130548b1c33000a388671",1,1.411,"Accuracy","Varying","ISI_1000",-1.28429871020575,1,"congruent"
"56e130548b1c33000a388671",2,1.309,"Accuracy","Varying","ISI_1000",-0.23458625353877,1,"incongruent"
"56e130548b1c33000a388671",3,0.759,"Accuracy","Varying","ISI_1000",0.92523069893736,1,"incongruent"
"56e130548b1c33000a388671",4,0.681,"Accuracy","Varying","ISI_1000",1.67587553860921,1,"incongruent"
"56e130548b1c33000a388671",1,1.096,"Speed","Varying","ISI_1000",-1.28429871020575,1,"incongruent"
"56e130548b1c33000a388671",2,0.894,"Speed","Varying","ISI_1000",-0.468930281781221,1,"congruent"
"56e130548b1c33000a388671",3,0.807,"Speed","Varying","ISI_1000",0.38214771285168,1,"congruent"
"56e130548b1c33000a388671",4,0.501,"Speed","Varying","ISI_1000",1.1685021187319,1,"incongruent"
"56e130548b1c33000a388671",1,0.766,"Accuracy","Varying","ISI_1000",-1.28429871020575,1,"congruent"
"56e130548b1c33000a388671",2,0.741,"Accuracy","Varying","ISI_1000",-0.714433549463788,1,"incongruent"
"56e130548b1c33000a388671",3,0.882,"Accuracy","Varying","ISI_1000",0.0228202028799223,1,"incongruent"
"56e130548b1c33000a388671",4,0.9,"Accuracy","Varying","ISI_1000",0.86497080596073,1,"congruent"
"56e130548b1c33000a388671",2,0.803,"Speed","Varying","ISI_1000",-0.725592788903905,1,"congruent"
"56e130548b1c33000a388671",3,0.641,"Speed","Varying","ISI_1000",0.057785819792288,1,"congruent"
"56e130548b1c33000a388671",4,0.717,"Speed","Varying","ISI_1000",0.720644642535221,1,"incongruent"
"56e130548b1c33000a388671",1,0.889,"Accuracy","Varying","ISI_1000",-1.28429871020575,1,"incongruent"
"56e130548b1c33000a388671",2,0.945,"Accuracy","Varying","ISI_1000",-0.622927786054831,1,"congruent"
"56e130548b1c33000a388671",1,1.391,"Speed","Varying","ISI_1000",-1.28429871020575,1,"incongruent"
"56e130548b1c33000a388671",2,0.775,"Speed","Varying","ISI_1000",-0.249465239458925,1,"congruent"
"56e130548b1c33000a388671",3,0.886,"Speed","Varying","ISI_1000",0.51308278894905,1,"incongruent"
"56e130548b1c33000a388671",1,0.687,"Accuracy","Varying","ISI_1000",-1.28429871020575,1,"incongruent"
"56e130548b1c33000a388671",2,0.836,"Accuracy","Varying","ISI_1000",-0.773205543848403,1,"congruent"
"56e130548b1c33000a388671",3,0.764,"Accuracy","Varying","ISI_1000",0.0347233916160468,1,"incongruent"
"56e130548b1c33000a388671",4,0.809,"Accuracy","Varying","ISI_1000",0.789087977767936,1,"congruent"
"56e130548b1c33000a388671",2,1.259,"Speed","Varying","ISI_1000",-0.541093363493976,1,"incongruent"
"56e130548b1c33000a388671",3,0.601,"Speed","Varying","ISI_1000",0.581526124181766,1,"congruent"
"56e130548b1c33000a388671",4,1.025,"Speed","Varying","ISI_1000",1.21462697508439,1,"incongruent"
"56e130548b1c33000a388671",1,0.707,"Accuracy","Varying","ISI_1000",-1.28429871020575,1,"congruent"
"56e130548b1c33000a388671",2,1.029,"Accuracy","Varying","ISI_1000",-0.758326557928248,1,"incongruent"
"56e130548b1c33000a388671",3,0.692,"Accuracy","Varying","ISI_1000",0.193184591665704,1,"congruent"
"56e130548b1c33000a388671",4,0.683,"Accuracy","Varying","ISI_1000",0.893984828505034,1,"incongruent"
"56e130548b1c33000a388671",5,0.776,"Accuracy","Varying","ISI_1000",1.58808952168029,1,"congruent"
"56e130548b1c33000a388671",1,0.737,"Speed","Varying","ISI_1000",-1.28429871020575,1,"incongruent"
"56e130548b1c33000a388671",2,0.842,"Speed","Varying","ISI_1000",-0.736008079048014,1,"congruent"
"56e130548b1c33000a388671",3,1,"Speed","Varying","ISI_1000",0.0763845521924825,1,"incongruent"
"56e130548b1c33000a388671",4,0.678,"Speed","Varying","ISI_1000",1.00632117220221,1,"congruent"
"56e130548b1c33000a388671",1,0.996,"Accuracy","Varying","ISI_1000",-1.28429871020575,1,"incongruent"
"56e130548b1c33000a388671",2,0.999,"Accuracy","Varying","ISI_1000",-0.543325211381999,1,"congruent"
"56e130548b1c33000a388671",3,0.721,"Accuracy","Varying","ISI_1000",0.385867459331719,1,"congruent"
"56e130548b1c33000a388671",4,1.317,"Accuracy","Varying","ISI_1000",1.10824222575527,1,"incongruent"
"56e130548b1c33000a388671",1,0.712,"Speed","Varying","ISI_1000",-1.28429871020575,1,"congruent"
"56e130548b1c33000a388671",2,0.822,"Speed","Varying","ISI_1000",-0.754606811448209,1,"incongruent"
"56e130548b1c33000a388671",3,0.778,"Speed","Varying","ISI_1000",0.0429068338721324,1,"congruent"
"56e130548b1c33000a388671",4,0.671,"Speed","Varying","ISI_1000",0.807686710168131,1,"incongruent"
"56e130548b1c33000a388671",1,1.023,"Accuracy","Varying","ISI_1000",-1.28429871020575,1,"congruent"
"56e130548b1c33000a388671",2,0.896,"Accuracy","Varying","ISI_1000",-0.523238580389789,1,"incongruent"
"56e130548b1c33000a388671",3,0.798,"Accuracy","Varying","ISI_1000",0.329327312835128,1,"incongruent"
"56e130548b1c33000a388671",1,0.849,"Speed","Varying","ISI_1000",-1.28429871020575,1,"incongruent"
"56e130548b1c33000a388671",2,0.713,"Speed","Varying","ISI_1000",-0.652685757895143,1,"congruent"
"56e130548b1c33000a388671",3,0.892,"Speed","Varying","ISI_1000",0.0637374141603502,1,"incongruent"
"56e130548b1c33000a388671",4,0.815,"Speed","Varying","ISI_1000",0.913327510201236,1,"incongruent"
"56e130548b1c33000a388671",5,0.573,"Speed","Varying","ISI_1000",1.70563351044952,1,"congruent"
"56e130548b1c33000a388671",1,0.977,"Accuracy","Varying","ISI_1000",-1.28429871020575,1,"congruent"
"56e130548b1c33000a388671",2,0.915,"Accuracy","Varying","ISI_1000",-0.557460248006147,1,"incongruent"
"56e130548b1c33000a388671",3,1.254,"Accuracy","Varying","ISI_1000",0.309240681842918,1,"incongruent"
"56e130548b1c33000a388671",1,1.78,"Speed","Varying","ISI_1000",-1.28429871020575,1,"congruent"
"56e130548b1c33000a388671",2,1.278,"Speed","Varying","ISI_1000",0.0399310366881013,1,"incongruent"
"56e130548b1c33000a388671",3,0.988,"Speed","Varying","ISI_1000",1.17668556098799,1,"incongruent"
"56e130548b1c33000a388671",1,1.318,"Accuracy","Varying","ISI_1000",-1.28429871020575,1,"congruent"
"56e130548b1c33000a388671",2,0.806,"Accuracy","Varying","ISI_1000",-0.303773538067493,1,"incongruent"
"56e130548b1c33000a388671",3,1.882,"Accuracy","Varying","ISI_1000",0.481836918516723,1,"congruent"
"56e130548b1c33000a388671",4,0.709,"Accuracy","Varying","ISI_1000",2.06793681760531,1,"incongruent"
"56e130548b1c33000a388671",1,0.909,"Speed","Varying","ISI_1000",-1.28429871020575,1,"congruent"
"56e130548b1c33000a388671",2,0.964,"Speed","Varying","ISI_1000",-0.608048800134676,1,"incongruent"
"56e130548b1c33000a388671",3,0.685,"Speed","Varying","ISI_1000",0.29510564521877,1,"congruent"
"56e130548b1c33000a388671",4,2.496,"Speed","Varying","ISI_1000",0.990698236986045,1,"incongruent"
"56e130548b1c33000a388671",1,1.086,"Accuracy","Varying","ISI_1000",-1.28429871020575,1,"congruent"
"56e130548b1c33000a388671",2,0.915,"Accuracy","Varying","ISI_1000",-0.476369774741299,1,"incongruent"
"56e130548b1c33000a388671",4,1.134,"Accuracy","Varying","ISI_1000",2.05008203450112,1,"congruent"
"56e130548b1c33000a388671",1,0.981,"Speed","Varying","ISI_1000",-1.28429871020575,1,"congruent"
"56e130548b1c33000a388671",2,0.707,"Speed","Varying","ISI_1000",-0.554484450822116,1,"incongruent"
"56e130548b1c33000a388671",3,1.589,"Speed","Varying","ISI_1000",0.157475025457331,1,"congruent"
"56e130548b1c33000a388671",4,1.934,"Speed","Varying","ISI_1000",1.52559778081564,1,"incongruent"
"56e130548b1c33000a388671",1,0.912,"Accuracy","Varying","ISI_1000",-1.28429871020575,1,"incongruent"
"56e130548b1c33000a388671",2,0.592,"Accuracy","Varying","ISI_1000",-0.605816952246652,1,"congruent"
"56e130548b1c33000a388671",4,1.15,"Accuracy","Varying","ISI_1000",0.768257397479719,1,"incongruent"
"56e130548b1c33000a388671",1,1.558,"Speed","Varying","ISI_1000",-1.28429871020575,1,"incongruent"
"56e130548b1c33000a388671",2,0.755,"Speed","Varying","ISI_1000",-0.125225707025626,1,"congruent"
"56e130548b1c33000a388671",3,0.787,"Speed","Varying","ISI_1000",0.622443335462194,1,"incongruent"
"56e130548b1c33000a388671",4,0.89,"Speed","Varying","ISI_1000",1.39391875542226,1,"incongruent"
"56e130548b1c33000a388671",1,1.35,"Accuracy","Varying","ISI_1000",-1.28429871020575,1,"incongruent"
"56e130548b1c33000a388671",2,0.717,"Accuracy","Varying","ISI_1000",-0.279967160595244,1,"congruent"
"56e130548b1c33000a388671",3,0.84,"Accuracy","Varying","ISI_1000",0.43943180864428,1,"congruent"
"56e130548b1c33000a388671",1,0.721,"Speed","Varying","ISI_1000",-1.28429871020575,1,"incongruent"
"56e130548b1c33000a388671",2,0.719,"Speed","Varying","ISI_1000",-0.747911267784139,1,"congruent"
"56e130548b1c33000a388671",3,0.701,"Speed","Varying","ISI_1000",-0.027024399952599,1,"congruent"
"56e130548b1c33000a388671",4,1.556,"Speed","Varying","ISI_1000",0.6804713805508,1,"incongruent"
"56e130548b1c33000a388671",5,0.561,"Speed","Varying","ISI_1000",2.02404380914085,1,"incongruent"
"591be15e630b1e00018f7dd0",1,0.725,"Accuracy","Varying","ISI_250",-1.28429871020575,0,"incongruent"
"591be15e630b1e00018f7dd0",2,0.641,"Accuracy","Varying","ISI_250",-0.744935470600107,1,"congruent"
"591be15e630b1e00018f7dd0",3,0.881,"Accuracy","Varying","ISI_250",-0.0820766478571748,1,"incongruent"
